Channel1	Channel2	Channel3	Channel4	Channel5	Channel6	Channel7	Channel8	FilteredChannel1	FilteredChannel2	FilteredChannel3	FilteredChannel4	FilteredChannel5	FilteredChannel6	FilteredChannel7	FilteredChannel8	GyroX	GyroY	GyroZ	AccX	AccY	AccZ	PPG1	PPG2	rawPPG1	rawPPG2	rawPPG3	Hr	Hrv	Battery	Trigger	PhysicalTrigger	AutoTrigger	NumMeasurements	Timestamp
3189.735000	90360.225000	-11487.015000	-26074.530000	0.000000	0.000000	0.000000	0.000000	-23.247492	-25.243903	-11.030197	-17.196575	-0.000000	0.000000	-0.000000	-0.000000	5.508860	-0.717220	0.122080	-0.087951	0.733030	0.683348	-1.000000	-1.000000	-1.000000	-1.000000	-1.000000	-1.000000	-1.000000	15.034483	0.000000	-1.000000	-1.000000	347109.000000	1772914630.831837
3222.990000	90377.550000	-11463.390000	-26046.540000	0.000000	0.000000	0.000000	0.000000	-16.299954	-27.201104	-6.157561	-12.237765	-0.000000	0.000000	-0.000000	-0.000000	5.508860	-0.717220	0.122080	-0.087951	0.733030	0.683348	-1.000000	-1.000000	-1.000000	-1.000000	-1.000000	-1.000000	-1.000000	15.034483	0.000000	-1.000000	-1.000000	347110.000000	1772914630.835777
3226.680000	90399.285000	-11466.090000	-26043.615000	0.000000	0.000000	0.000000	0.000000	1.554069	-14.120165	4.410513	1.499771	-0.000000	0.000000	-0.000000	-0.000000	5.508860	-0.717220	0.122080	-0.087951	0.733030	0.683348	-1.000000	-1.000000	-1.000000	-1.000000	-1.000000	-1.000000	-1.000000	15.034483	0.000000	-1.000000	-1.000000	347111.000000	1772914630.835780
3198.960000	90414.585000	-11499.885000	-26073.855000	0.000000	0.000000	0.000000	0.000000	18.276339	6.666786	12.527639	13.986250	-0.000000	0.000000	-0.000000	-0.000000	5.508860	-0.717220	0.122080	-0.087951	0.733030	0.683348	-1.000000	-1.000000	-1.000000	-1.000000	-1.000000	-1.000000	-1.000000	15.034483	0.000000	-1.000000	-1.000000	347112.000000	1772914630.839747
3199.185000	90419.130000	-11500.560000	-26082.090000	0.000000	0.000000	0.000000	0.000000	22.407120	23.863518	11.161328	15.714177	-0.000000	0.000000	-0.000000	-0.000000	5.508860	-0.717220	0.122080	-0.087951	0.733030	0.683348	-1.000000	-1.000000	-1.000000	-1.000000	-1.000000	-1.000000	-1.000000	15.034483	0.000000	-1.000000	-1.000000	347113.000000	1772914630.839750
3191.175000	90404.730000	-11497.590000	-26080.380000	0.000000	0.000000	0.000000	0.000000	12.611164	28.502440	1.639255	6.185284	-0.000000	0.000000	-0.000000	-0.000000	5.508860	-0.717220	0.122080	-0.087951	0.733030	0.683348	-1.000000	-1.000000	-1.000000	-1.000000	-1.000000	-1.000000	-1.000000	15.034483	0.000000	-1.000000	-1.000000	347114.000000	1772914630.843847
3184.020000	90380.835000	-11494.935000	-26079.480000	0.000000	0.000000	0.000000	0.000000	-2.789002	18.343874	-7.839068	-6.169781	-0.000000	0.000000	-0.000000	-0.000000	5.508860	-0.717220	0.122080	-0.087951	0.733030	0.683348	-1.000000	-1.000000	-1.000000	-1.000000	-1.000000	-1.000000	-1.000000	15.034483	0.000000	-1.000000	-1.000000	347115.000000	1772914630.843850
3174.885000	90358.200000	-11500.065000	-26089.920000	0.000000	0.000000	0.000000	0.000000	-14.415757	-1.329553	-10.909427	-12.902467	-0.000000	0.000000	-0.000000	-0.000000	4.608520	-1.403920	-0.274680	-0.087951	0.733213	0.681578	-1.000000	-1.000000	-1.000000	-1.000000	-1.000000	-1.000000	-1.000000	15.034483	0.000000	-1.000000	-1.000000	347116.000000	1772914630.848135
3172.095000	90350.370000	-11506.320000	-26099.595000	0.000000	0.000000	0.000000	0.000000	-17.591382	-20.376916	-7.606734	-12.007744	-0.000000	0.000000	-0.000000	-0.000000	4.608520	-1.403920	-0.274680	-0.087951	0.733213	0.681578	-1.000000	-1.000000	-1.000000	-1.000000	-1.000000	-1.000000	-1.000000	15.034483	0.000000	-1.000000	-1.000000	347117.000000	1772914630.848138
3179.655000	90357.705000	-11507.130000	-26098.065000	0.000000	0.000000	0.000000	0.000000	-12.540620	-28.895355	-1.832792	-6.423721	-0.000000	0.000000	-0.000000	-0.000000	4.608520	-1.403920	-0.274680	-0.087951	0.733213	0.681578	-1.000000	-1.000000	-1.000000	-1.000000	-1.000000	-1.000000	-1.000000	15.034483	0.000000	-1.000000	-1.000000	347118.000000	1772914630.851873
3192.345000	90382.410000	-11501.370000	-26085.240000	0.000000	0.000000	0.000000	0.000000	-2.363549	-22.336968	3.058935	0.618609	-0.000000	0.000000	-0.000000	-0.000000	4.608520	-1.403920	-0.274680	-0.087951	0.733213	0.681578	-1.000000	-1.000000	-1.000000	-1.000000	-1.000000	-1.000000	-1.000000	15.034483	0.000000	-1.000000	-1.000000	347119.000000	1772914630.851876
3202.605000	90409.770000	-11496.420000	-26074.305000	0.000000	0.000000	0.000000	0.000000	8.605749	-3.814690	6.004909	7.372257	0.000000	0.000000	-0.000000	-0.000000	4.608520	-1.403920	-0.274680	-0.087951	0.733213	0.681578	-1.000000	-1.000000	-1.000000	-1.000000	-1.000000	-1.000000	-1.000000	15.034483	0.000000	-1.000000	-1.000000	347120.000000	1772914630.855780
3214.800000	90425.295000	-11485.170000	-26060.400000	0.000000	0.000000	0.000000	0.000000	16.026739	17.381032	7.243139	12.406305	0.000000	0.000000	-0.000000	-0.000000	4.608520	-1.403920	-0.274680	-0.087951	0.733213	0.681578	-1.000000	-1.000000	-1.000000	-1.000000	-1.000000	-1.000000	-1.000000	15.034483	0.000000	-1.000000	-1.000000	347121.000000	1772914630.855783
3216.555000	90418.050000	-11477.700000	-26054.100000	0.000000	0.000000	0.000000	0.000000	17.070723	30.172336	7.126766	13.995253	0.000000	0.000000	-0.000000	-0.000000	4.608520	-1.403920	-0.274680	-0.087951	0.733213	0.681578	-1.000000	-1.000000	-1.000000	-1.000000	-1.000000	-1.000000	-1.000000	15.034483	0.000000	-1.000000	-1.000000	347122.000000	1772914630.859787
3206.520000	90394.335000	-11478.510000	-26059.230000	0.000000	0.000000	0.000000	0.000000	11.263600	27.315198	5.558604	10.833760	0.000000	0.000000	-0.000000	-0.000000	4.608520	-1.403920	-0.274680	-0.087951	0.733213	0.681578	-1.000000	-1.000000	-1.000000	-1.000000	-1.000000	-1.000000	-1.000000	15.034483	0.000000	-1.000000	-1.000000	347123.000000	1772914630.859790
3184.245000	90367.155000	-11492.235000	-26074.935000	0.000000	0.000000	0.000000	0.000000	0.305828	9.656197	1.925651	2.903909	0.000000	0.000000	-0.000000	-0.000000	4.608520	-1.403920	-0.274680	-0.087951	0.733213	0.681578	-1.000000	-1.000000	-1.000000	-1.000000	-1.000000	-1.000000	-1.000000	15.034483	0.000000	-1.000000	-1.000000	347124.000000	1772914630.863735
3174.345000	90352.755000	-11497.635000	-26083.980000	0.000000	0.000000	0.000000	0.000000	-12.038183	-13.733138	-3.787040	-7.658316	0.000000	0.000000	-0.000000	-0.000000	4.608520	-1.403920	-0.274680	-0.087951	0.733213	0.681578	-1.000000	-1.000000	-1.000000	-1.000000	-1.000000	-1.000000	-1.000000	15.034483	0.000000	-1.000000	-1.000000	347125.000000	1772914630.863738
3181.365000	90358.200000	-11495.385000	-26079.885000	0.000000	0.000000	0.000000	0.000000	-20.205604	-30.237619	-9.457446	-16.323296	0.000000	0.000000	-0.000000	-0.000000	3.250380	-0.991900	-0.213640	-0.084961	0.735350	0.679930	-1.000000	-1.000000	-1.000000	-1.000000	-1.000000	-1.000000	-1.000000	15.034483	0.000000	-1.000000	-1.000000	347126.000000	1772914630.867825
3191.130000	90380.475000	-11490.840000	-26069.490000	0.000000	0.000000	0.000000	0.000000	-19.299637	-30.736377	-11.596432	-18.170827	0.000000	0.000000	-0.000000	-0.000000	3.250380	-0.991900	-0.213640	-0.084961	0.735350	0.679930	-1.000000	-1.000000	-1.000000	-1.000000	-1.000000	-1.000000	-1.000000	15.034483	0.000000	-1.000000	-1.000000	347127.000000	1772914630.867828
3220.065000	90413.955000	-11473.785000	-26048.745000	0.000000	0.000000	0.000000	0.000000	-8.722335	-14.716970	-8.193382	-11.361796	0.000000	0.000000	-0.000000	-0.000000	3.250380	-0.991900	-0.213640	-0.084961	0.735350	0.679930	-1.000000	-1.000000	-1.000000	-1.000000	-1.000000	-1.000000	-1.000000	15.034483	0.000000	-1.000000	-1.000000	347128.000000	1772914630.874036
3234.195000	90438.030000	-11465.055000	-26042.805000	0.000000	0.000000	0.000000	0.000000	6.867396	9.507146	-0.423904	1.010993	0.000000	0.000000	-0.000000	-0.000000	3.250380	-0.991900	-0.213640	-0.084961	0.735350	0.679930	-1.000000	-1.000000	-1.000000	-1.000000	-1.000000	-1.000000	-1.000000	15.034483	0.000000	-1.000000	-1.000000	347129.000000	1772914630.874038
3207.735000	90434.565000	-11485.395000	-26064.585000	0.000000	0.000000	0.000000	0.000000	19.103975	29.009045	7.306465	11.861121	0.000000	0.000000	-0.000000	-0.000000	3.250380	-0.991900	-0.213640	-0.084961	0.735350	0.679930	-1.000000	-1.000000	-1.000000	-1.000000	-1.000000	-1.000000	-1.000000	15.034483	0.000000	-1.000000	-1.000000	347130.000000	1772914630.875825
3179.745000	90413.505000	-11507.130000	-26087.175000	0.000000	0.000000	0.000000	0.000000	19.775441	32.847009	9.388330	14.080146	0.000000	0.000000	-0.000000	-0.000000	3.250380	-0.991900	-0.213640	-0.084961	0.735350	0.679930	-1.000000	-1.000000	-1.000000	-1.000000	-1.000000	-1.000000	-1.000000	15.034483	0.000000	-1.000000	-1.000000	347131.000000	1772914630.875828
3178.260000	90386.910000	-11502.720000	-26087.625000	0.000000	0.000000	0.000000	0.000000	7.767795	18.468445	4.129091	6.515108	0.000000	0.000000	-0.000000	-0.000000	3.250380	-0.991900	-0.213640	-0.084961	0.735350	0.679930	-1.000000	-1.000000	-1.000000	-1.000000	-1.000000	-1.000000	-1.000000	15.034483	0.000000	-1.000000	-1.000000	347132.000000	1772914630.879744
3188.655000	90372.420000	-11487.420000	-26073.720000	0.000000	0.000000	0.000000	0.000000	-8.110112	-6.194436	-3.361623	-4.065164	0.000000	0.000000	-0.000000	-0.000000	3.250380	-0.991900	-0.213640	-0.084961	0.735350	0.679930	-1.000000	-1.000000	-1.000000	-1.000000	-1.000000	-1.000000	-1.000000	15.034483	0.000000	-1.000000	-1.000000	347133.000000	1772914630.879748
3177.765000	90372.960000	-11497.005000	-26082.405000	0.000000	0.000000	0.000000	0.000000	-16.798424	-27.264176	-6.387096	-9.274217	0.000000	0.000000	-0.000000	-0.000000	3.250380	-0.991900	-0.213640	-0.084961	0.735350	0.679930	-1.000000	-1.000000	-1.000000	-1.000000	-1.000000	-1.000000	-1.000000	15.034483	0.000000	-1.000000	-1.000000	347134.000000	1772914630.885774
3182.130000	90388.890000	-11504.115000	-26091.540000	0.000000	0.000000	0.000000	0.000000	-14.521419	-33.256187	-3.848168	-7.015652	0.000000	0.000000	-0.000000	-0.000000	3.250380	-0.991900	-0.213640	-0.084961	0.735350	0.679930	-1.000000	-1.000000	-1.000000	-1.000000	-1.000000	-1.000000	-1.000000	15.034483	0.000000	-1.000000	-1.000000	347135.000000	1772914630.885777
3202.335000	90412.470000	-11491.920000	-26072.775000	0.000000	0.000000	0.000000	0.000000	-4.829192	-21.528070	0.659823	-0.978842	0.000000	0.000000	-0.000000	-0.000000	1.464960	0.427280	-0.808780	-0.081054	0.738279	0.679564	-1.000000	-1.000000	-1.000000	-1.000000	-1.000000	-1.000000	-1.000000	15.034483	0.000000	-1.000000	-1.000000	347136.000000	1772914630.888873
3217.725000	90435.060000	-11480.490000	-26056.035000	0.000000	0.000000	0.000000	0.000000	6.864186	0.980952	4.480819	5.398475	0.000000	0.000000	-0.000000	-0.000000	1.464960	0.427280	-0.808780	-0.081054	0.738279	0.679564	-1.000000	-1.000000	-1.000000	-1.000000	-1.000000	-1.000000	-1.000000	15.034483	0.000000	-1.000000	-1.000000	347137.000000	1772914630.888875
3217.050000	90434.115000	-11481.255000	-26054.775000	0.000000	0.000000	0.000000	0.000000	15.467800	22.044081	6.890694	10.300963	0.000000	0.000000	-0.000000	-0.000000	1.464960	0.427280	-0.808780	-0.081054	0.738279	0.679564	-1.000000	-1.000000	-1.000000	-1.000000	-1.000000	-1.000000	-1.000000	15.034483	0.000000	-1.000000	-1.000000	347138.000000	1772914630.893959
3201.480000	90417.015000	-11490.930000	-26069.220000	0.000000	0.000000	0.000000	0.000000	16.564097	30.479629	6.804035	11.249763	0.000000	0.000000	-0.000000	-0.000000	1.464960	0.427280	-0.808780	-0.081054	0.738279	0.679564	-1.000000	-1.000000	-1.000000	-1.000000	-1.000000	-1.000000	-1.000000	15.034483	0.000000	-1.000000	-1.000000	347139.000000	1772914630.893962
3188.970000	90390.285000	-11493.765000	-26079.615000	0.000000	0.000000	0.000000	0.000000	8.741233	22.003667	3.233043	6.186918	0.000000	0.000000	-0.000000	-0.000000	1.464960	0.427280	-0.808780	-0.081054	0.738279	0.679564	-1.000000	-1.000000	-1.000000	-1.000000	-1.000000	-1.000000	-1.000000	15.034483	0.000000	-1.000000	-1.000000	347140.000000	1772914630.896952
3181.770000	90369.855000	-11493.450000	-26083.980000	0.000000	0.000000	0.000000	0.000000	-4.235044	1.720538	-2.479202	-3.212411	0.000000	0.000000	-0.000000	-0.000000	1.464960	0.427280	-0.808780	-0.081054	0.738279	0.679564	-1.000000	-1.000000	-1.000000	-1.000000	-1.000000	-1.000000	-1.000000	15.034483	0.000000	-1.000000	-1.000000	347141.000000	1772914630.896955
3178.305000	90362.925000	-11494.665000	-26084.790000	0.000000	0.000000	0.000000	0.000000	-15.187689	-18.812713	-7.064544	-11.657655	0.000000	0.000000	-0.000000	-0.000000	1.464960	0.427280	-0.808780	-0.081054	0.738279	0.679564	-1.000000	-1.000000	-1.000000	-1.000000	-1.000000	-1.000000	-1.000000	15.034483	0.000000	-1.000000	-1.000000	347142.000000	1772914630.899739
3196.485000	90376.380000	-11483.235000	-26065.305000	0.000000	0.000000	0.000000	0.000000	-18.041358	-28.213897	-7.911545	-13.945751	0.000000	0.000000	-0.000000	-0.000000	1.464960	0.427280	-0.808780	-0.081054	0.738279	0.679564	-1.000000	-1.000000	-1.000000	-1.000000	-1.000000	-1.000000	-1.000000	15.034483	0.000000	-1.000000	-1.000000	347143.000000	1772914630.899741
3214.170000	90400.860000	-11476.890000	-26052.480000	0.000000	0.000000	0.000000	0.000000	-11.081433	-21.470068	-4.589196	-8.340618	0.000000	0.000000	-0.000000	-0.000000	1.464960	0.427280	-0.808780	-0.081054	0.738279	0.679564	-1.000000	-1.000000	-1.000000	-1.000000	-1.000000	-1.000000	-1.000000	15.034483	0.000000	-1.000000	-1.000000	347144.000000	1772914630.903805
3218.085000	90424.845000	-11482.560000	-26052.615000	0.000000	0.000000	0.000000	0.000000	1.894700	-2.451766	0.803253	1.908876	0.000000	0.000000	-0.000000	-0.000000	1.464960	0.427280	-0.808780	-0.081054	0.738279	0.679564	-1.000000	-1.000000	-1.000000	-1.000000	-1.000000	-1.000000	-1.000000	15.034483	0.000000	-1.000000	-1.000000	347145.000000	1772914630.903807
3235.410000	90435.195000	-11470.230000	-26042.355000	0.000000	0.000000	0.000000	0.000000	13.538069	18.328959	4.903487	10.440357	0.000000	0.000000	-0.000000	-0.000000	-0.656180	0.686700	0.427280	-0.081909	0.740049	0.679014	-1.000000	-1.000000	-1.000000	-1.000000	-1.000000	-1.000000	-1.000000	15.034483	0.000000	-1.000000	-1.000000	347146.000000	1772914630.910300
3224.970000	90425.475000	-11465.865000	-26041.455000	0.000000	0.000000	0.000000	0.000000	17.761693	29.432574	5.986641	12.694190	0.000000	0.000000	-0.000000	-0.000000	-0.656180	0.686700	0.427280	-0.081909	0.740049	0.679014	-1.000000	-1.000000	-1.000000	-1.000000	-1.000000	-1.000000	-1.000000	15.034483	0.000000	-1.000000	-1.000000	347147.000000	1772914630.910303
3214.395000	90396.990000	-11464.515000	-26044.965000	0.000000	0.000000	0.000000	0.000000	12.674952	24.538128	4.559384	8.424768	0.000000	0.000000	-0.000000	-0.000000	-0.656180	0.686700	0.427280	-0.081909	0.740049	0.679014	-1.000000	-1.000000	-1.000000	-1.000000	-1.000000	-1.000000	-1.000000	15.034483	0.000000	-1.000000	-1.000000	347148.000000	1772914630.913273
3180.600000	90369.855000	-11492.010000	-26074.665000	0.000000	0.000000	0.000000	0.000000	0.456816	5.831297	1.156756	-0.064512	0.000000	0.000000	-0.000000	-0.000000	-0.656180	0.686700	0.427280	-0.081909	0.740049	0.679014	-1.000000	-1.000000	-1.000000	-1.000000	-1.000000	-1.000000	-1.000000	15.034483	0.000000	-1.000000	-1.000000	347149.000000	1772914630.913275
3162.780000	90354.735000	-11507.895000	-26092.980000	0.000000	0.000000	0.000000	0.000000	-13.674420	-16.839973	-4.274603	-9.863327	0.000000	0.000000	-0.000000	-0.000000	-0.656180	0.686700	0.427280	-0.081909	0.740049	0.679014	-1.000000	-1.000000	-1.000000	-1.000000	-1.000000	-1.000000	-1.000000	15.034483	0.000000	-1.000000	-1.000000	347150.000000	1772914630.916527
3159.405000	90361.710000	-11516.760000	-26101.530000	0.000000	0.000000	0.000000	0.000000	-22.902716	-31.066753	-10.172100	-17.184200	0.000000	0.000000	-0.000000	-0.000000	-0.656180	0.686700	0.427280	-0.081909	0.740049	0.679014	-1.000000	-1.000000	-1.000000	-1.000000	-1.000000	-1.000000	-1.000000	15.034483	0.000000	-1.000000	-1.000000	347151.000000	1772914630.916529
3166.605000	90383.760000	-11511.990000	-26093.295000	0.000000	0.000000	0.000000	0.000000	-21.621942	-28.781510	-12.613282	-17.657132	0.000000	0.000000	-0.000000	-0.000000	-0.656180	0.686700	0.427280	-0.081909	0.740049	0.679014	-1.000000	-1.000000	-1.000000	-1.000000	-1.000000	-1.000000	-1.000000	15.034483	0.000000	-1.000000	-1.000000	347152.000000	1772914630.919859
3188.565000	90409.095000	-11501.370000	-26079.570000	0.000000	0.000000	0.000000	0.000000	-9.091999	-10.917715	-8.400206	-9.241922	0.000000	0.000000	-0.000000	-0.000000	-0.656180	0.686700	0.427280	-0.081909	0.740049	0.679014	-1.000000	-1.000000	-1.000000	-1.000000	-1.000000	-1.000000	-1.000000	15.034483	0.000000	-1.000000	-1.000000	347153.000000	1772914630.919862
3215.475000	90425.745000	-11485.215000	-26062.245000	0.000000	0.000000	0.000000	0.000000	9.631273	13.023284	1.762365	5.298096	0.000000	0.000000	-0.000000	-0.000000	-0.656180	0.686700	0.427280	-0.081909	0.740049	0.679014	-1.000000	-1.000000	-1.000000	-1.000000	-1.000000	-1.000000	-1.000000	15.034483	0.000000	-1.000000	-1.000000	347154.000000	1772914630.923788
3212.910000	90423.945000	-11483.550000	-26061.660000	0.000000	0.000000	0.000000	0.000000	25.874205	30.276198	13.096964	19.143826	0.000000	0.000000	-0.000000	-0.000000	-0.656180	0.686700	0.427280	-0.081909	0.740049	0.679014	-1.000000	-1.000000	-1.000000	-1.000000	-1.000000	-1.000000	-1.000000	15.034483	0.000000	-1.000000	-1.000000	347155.000000	1772914630.923791
3195.855000	90402.840000	-11488.905000	-26068.995000	0.000000	0.000000	0.000000	0.000000	30.831375	31.708054	19.272409	24.926531	0.000000	0.000000	-0.000000	-0.000000	2.426340	0.396760	-0.305200	-0.085815	0.739317	0.684813	-1.000000	-1.000000	-1.000000	-1.000000	-1.000000	-1.000000	-1.000000	15.034483	0.000000	-1.000000	-1.000000	347156.000000	1772914630.927864
3177.090000	90377.010000	-11498.085000	-26080.605000	0.000000	0.000000	0.000000	0.000000	20.696857	16.563797	16.376924	19.193440	0.000000	0.000000	-0.000000	-0.000000	2.426340	0.396760	-0.305200	-0.085815	0.739317	0.684813	-1.000000	-1.000000	-1.000000	-1.000000	-1.000000	-1.000000	-1.000000	15.034483	0.000000	-1.000000	-1.000000	347157.000000	1772914630.927867
3168.360000	90351.540000	-11502.090000	-26087.985000	0.000000	0.000000	0.000000	0.000000	0.408252	-7.231207	5.803307	4.892883	0.000000	0.000000	-0.000000	-0.000000	2.426340	0.396760	-0.305200	-0.085815	0.739317	0.684813	-1.000000	-1.000000	-1.000000	-1.000000	-1.000000	-1.000000	-1.000000	15.034483	0.000000	-1.000000	-1.000000	347158.000000	1772914630.931948
3189.735000	90350.550000	-11483.370000	-26070.165000	0.000000	0.000000	0.000000	0.000000	-18.515183	-27.281995	-6.244700	-10.043062	0.000000	0.000000	-0.000000	-0.000000	2.426340	0.396760	-0.305200	-0.085815	0.739317	0.684813	-1.000000	-1.000000	-1.000000	-1.000000	-1.000000	-1.000000	-1.000000	15.034483	0.000000	-1.000000	-1.000000	347159.000000	1772914630.931951
3215.835000	90369.540000	-11467.305000	-26049.420000	0.000000	0.000000	0.000000	0.000000	-25.129682	-32.983941	-12.626091	-17.247020	0.000000	0.000000	-0.000000	-0.000000	2.426340	0.396760	-0.305200	-0.085815	0.739317	0.684813	-1.000000	-1.000000	-1.000000	-1.000000	-1.000000	-1.000000	-1.000000	15.034483	0.000000	-1.000000	-1.000000	347160.000000	1772914630.935794
3212.325000	90395.910000	-11480.715000	-26058.870000	0.000000	0.000000	0.000000	0.000000	-16.958093	-21.081574	-10.908294	-13.931998	0.000000	0.000000	-0.000000	-0.000000	2.426340	0.396760	-0.305200	-0.085815	0.739317	0.684813	-1.000000	-1.000000	-1.000000	-1.000000	-1.000000	-1.000000	-1.000000	15.034483	0.000000	-1.000000	-1.000000	347161.000000	1772914630.935797
3211.785000	90415.980000	-11486.295000	-26064.540000	0.000000	0.000000	0.000000	0.000000	-1.924612	2.097871	-5.317650	-5.227237	0.000000	0.000000	-0.000000	-0.000000	2.426340	0.396760	-0.305200	-0.085815	0.739317	0.684813	-1.000000	-1.000000	-1.000000	-1.000000	-1.000000	-1.000000	-1.000000	15.034483	0.000000	-1.000000	-1.000000	347162.000000	1772914630.939806
3206.925000	90419.850000	-11490.480000	-26066.520000	0.000000	0.000000	0.000000	0.000000	9.074572	23.911384	-1.472564	1.402345	0.000000	0.000000	-0.000000	-0.000000	2.426340	0.396760	-0.305200	-0.085815	0.739317	0.684813	-1.000000	-1.000000	-1.000000	-1.000000	-1.000000	-1.000000	-1.000000	15.034483	0.000000	-1.000000	-1.000000	347163.000000	1772914630.939808
3192.435000	90405.585000	-11496.870000	-26075.655000	0.000000	0.000000	0.000000	0.000000	10.601374	32.586275	-1.006513	2.799352	0.000000	0.000000	-0.000000	-0.000000	2.426340	0.396760	-0.305200	-0.085815	0.739317	0.684813	-1.000000	-1.000000	-1.000000	-1.000000	-1.000000	-1.000000	-1.000000	15.034483	0.000000	-1.000000	-1.000000	347164.000000	1772914630.943831
3185.775000	90380.970000	-11494.350000	-26076.195000	0.000000	0.000000	0.000000	0.000000	4.246671	23.725294	-2.008587	0.531450	0.000000	0.000000	-0.000000	-0.000000	2.426340	0.396760	-0.305200	-0.085815	0.739317	0.684813	-1.000000	-1.000000	-1.000000	-1.000000	-1.000000	-1.000000	-1.000000	15.034483	0.000000	-1.000000	-1.000000	347165.000000	1772914630.943834
3189.735000	90359.280000	-11482.650000	-26068.680000	0.000000	0.000000	0.000000	0.000000	-4.125311	2.464349	-1.739147	-1.894165	0.000000	0.000000	-0.000000	-0.000000	6.500760	-0.381500	-2.121140	-0.085266	0.734190	0.685545	-1.000000	-1.000000	-1.000000	-1.000000	-1.000000	-1.000000	-1.000000	15.034483	0.000000	-1.000000	-1.000000	347166.000000	1772914630.947941
3185.955000	90350.190000	-11487.105000	-26073.990000	0.000000	0.000000	0.000000	0.000000	-8.519301	-19.607172	1.031971	-1.807511	0.000000	0.000000	-0.000000	-0.000000	6.500760	-0.381500	-2.121140	-0.085266	0.734190	0.685545	-1.000000	-1.000000	-1.000000	-1.000000	-1.000000	-1.000000	-1.000000	15.034483	0.000000	-1.000000	-1.000000	347167.000000	1772914630.947944
3185.505000	90351.900000	-11495.790000	-26078.940000	0.000000	0.000000	0.000000	0.000000	-6.808274	-30.965306	4.534133	0.521575	0.000000	0.000000	-0.000000	-0.000000	6.500760	-0.381500	-2.121140	-0.085266	0.734190	0.685545	-1.000000	-1.000000	-1.000000	-1.000000	-1.000000	-1.000000	-1.000000	15.034483	0.000000	-1.000000	-1.000000	347168.000000	1772914630.951880
3205.485000	90372.420000	-11485.665000	-26066.835000	0.000000	0.000000	0.000000	0.000000	-0.823611	-26.221612	5.955532	3.046969	0.000000	0.000000	-0.000000	-0.000000	6.500760	-0.381500	-2.121140	-0.085266	0.734190	0.685545	-1.000000	-1.000000	-1.000000	-1.000000	-1.000000	-1.000000	-1.000000	15.034483	0.000000	-1.000000	-1.000000	347169.000000	1772914630.951883
3231.630000	90395.910000	-11465.415000	-26040.645000	0.000000	0.000000	0.000000	0.000000	6.748356	-8.253323	5.192591	5.128478	0.000000	0.000000	-0.000000	-0.000000	6.500760	-0.381500	-2.121140	-0.085266	0.734190	0.685545	-1.000000	-1.000000	-1.000000	-1.000000	-1.000000	-1.000000	-1.000000	15.034483	0.000000	-1.000000	-1.000000	347170.000000	1772914630.955788
3236.400000	90407.295000	-11461.095000	-26033.940000	0.000000	0.000000	0.000000	0.000000	13.240229	13.671839	4.315964	7.328461	0.000000	0.000000	-0.000000	-0.000000	6.500760	-0.381500	-2.121140	-0.085266	0.734190	0.685545	-1.000000	-1.000000	-1.000000	-1.000000	-1.000000	-1.000000	-1.000000	15.034483	0.000000	-1.000000	-1.000000	347171.000000	1772914630.955790
3221.595000	90397.260000	-11469.015000	-26041.455000	0.000000	0.000000	0.000000	0.000000	14.843237	28.227366	3.622048	8.333912	0.000000	0.000000	-0.000000	-0.000000	6.500760	-0.381500	-2.121140	-0.085266	0.734190	0.685545	-1.000000	-1.000000	-1.000000	-1.000000	-1.000000	-1.000000	-1.000000	15.034483	0.000000	-1.000000	-1.000000	347172.000000	1772914630.959837
3184.785000	90373.995000	-11502.000000	-26084.205000	0.000000	0.000000	0.000000	0.000000	8.103376	27.671368	0.726710	4.679161	0.000000	0.000000	-0.000000	-0.000000	6.500760	-0.381500	-2.121140	-0.085266	0.734190	0.685545	-1.000000	-1.000000	-1.000000	-1.000000	-1.000000	-1.000000	-1.000000	15.034483	0.000000	-1.000000	-1.000000	347173.000000	1772914630.959840
3169.845000	90349.560000	-11509.965000	-26095.320000	0.000000	0.000000	0.000000	0.000000	-5.953714	12.346096	-5.803355	-5.063486	0.000000	0.000000	-0.000000	-0.000000	6.500760	-0.381500	-2.121140	-0.085266	0.734190	0.685545	-1.000000	-1.000000	-1.000000	-1.000000	-1.000000	-1.000000	-1.000000	15.034483	0.000000	-1.000000	-1.000000	347174.000000	1772914630.963917
3181.185000	90337.005000	-11494.755000	-26079.840000	0.000000	0.000000	0.000000	0.000000	-19.729141	-9.165249	-12.541248	-15.837538	0.000000	0.000000	-0.000000	-0.000000	6.500760	-0.381500	-2.121140	-0.085266	0.734190	0.685545	-1.000000	-1.000000	-1.000000	-1.000000	-1.000000	-1.000000	-1.000000	15.034483	0.000000	-1.000000	-1.000000	347175.000000	1772914630.963919
3208.410000	90343.395000	-11471.220000	-26055.090000	0.000000	0.000000	0.000000	0.000000	-23.217298	-24.840371	-12.914511	-18.542967	0.000000	0.000000	-0.000000	-0.000000	10.926160	-0.961380	0.045780	-0.082519	0.730406	0.686705	-1.000000	-1.000000	-1.000000	-1.000000	-1.000000	-1.000000	-1.000000	15.034483	0.000000	-1.000000	-1.000000	347176.000000	1772914630.967831
3207.105000	90363.240000	-11482.065000	-26061.525000	0.000000	0.000000	0.000000	0.000000	-12.765076	-26.089984	-4.639504	-9.409657	0.000000	0.000000	-0.000000	-0.000000	10.926160	-0.961380	0.045780	-0.082519	0.730406	0.686705	-1.000000	-1.000000	-1.000000	-1.000000	-1.000000	-1.000000	-1.000000	15.034483	0.000000	-1.000000	-1.000000	347177.000000	1772914630.967835
3203.865000	90381.960000	-11496.015000	-26076.645000	0.000000	0.000000	0.000000	0.000000	4.632891	-12.663708	6.355756	4.991385	0.000000	0.000000	-0.000000	-0.000000	10.926160	-0.961380	0.045780	-0.082519	0.730406	0.686705	-1.000000	-1.000000	-1.000000	-1.000000	-1.000000	-1.000000	-1.000000	15.034483	0.000000	-1.000000	-1.000000	347178.000000	1772914630.971899
3241.620000	90398.205000	-11461.590000	-26042.895000	0.000000	0.000000	0.000000	0.000000	18.202285	7.425959	12.507601	14.898131	0.000000	0.000000	-0.000000	-0.000000	10.926160	-0.961380	0.045780	-0.082519	0.730406	0.686705	-1.000000	-1.000000	-1.000000	-1.000000	-1.000000	-1.000000	-1.000000	15.034483	0.000000	-1.000000	-1.000000	347179.000000	1772914630.971902
3275.595000	90397.575000	-11420.370000	-25996.275000	0.000000	0.000000	0.000000	0.000000	23.283744	22.929944	13.232965	17.714352	0.000000	0.000000	-0.000000	-0.000000	10.926160	-0.961380	0.045780	-0.082519	0.730406	0.686705	-1.000000	-1.000000	-1.000000	-1.000000	-1.000000	-1.000000	-1.000000	15.034483	0.000000	-1.000000	-1.000000	347180.000000	1772914630.975901
3237.885000	90375.255000	-11450.655000	-26023.230000	0.000000	0.000000	0.000000	0.000000	20.360251	25.516993	11.698778	16.196691	0.000000	0.000000	-0.000000	-0.000000	10.926160	-0.961380	0.045780	-0.082519	0.730406	0.686705	-1.000000	-1.000000	-1.000000	-1.000000	-1.000000	-1.000000	-1.000000	15.034483	0.000000	-1.000000	-1.000000	347181.000000	1772914630.975904
3164.310000	90344.610000	-11520.765000	-26102.340000	0.000000	0.000000	0.000000	0.000000	8.140844	13.646566	5.837202	8.834758	0.000000	0.000000	-0.000000	-0.000000	10.926160	-0.961380	0.045780	-0.082519	0.730406	0.686705	-1.000000	-1.000000	-1.000000	-1.000000	-1.000000	-1.000000	-1.000000	15.034483	0.000000	-1.000000	-1.000000	347182.000000	1772914630.979754
3128.175000	90324.990000	-11546.865000	-26136.180000	0.000000	0.000000	0.000000	0.000000	-13.425982	-6.531305	-8.199228	-7.931722	0.000000	0.000000	-0.000000	-0.000000	10.926160	-0.961380	0.045780	-0.082519	0.730406	0.686705	-1.000000	-1.000000	-1.000000	-1.000000	-1.000000	-1.000000	-1.000000	15.034483	0.000000	-1.000000	-1.000000	347183.000000	1772914630.979757
3168.360000	90327.330000	-11507.175000	-26093.295000	0.000000	0.000000	0.000000	0.000000	-34.091757	-23.802058	-24.177966	-27.201233	0.000000	0.000000	-0.000000	-0.000000	10.926160	-0.961380	0.045780	-0.082519	0.730406	0.686705	-1.000000	-1.000000	-1.000000	-1.000000	-1.000000	-1.000000	-1.000000	15.034483	0.000000	-1.000000	-1.000000	347184.000000	1772914630.985181
3193.020000	90346.680000	-11497.005000	-26075.970000	0.000000	0.000000	0.000000	0.000000	-37.273086	-27.946303	-27.864878	-32.798355	0.000000	0.000000	-0.000000	-0.000000	10.926160	-0.961380	0.045780	-0.082519	0.730406	0.686705	-1.000000	-1.000000	-1.000000	-1.000000	-1.000000	-1.000000	-1.000000	15.034483	0.000000	-1.000000	-1.000000	347185.000000	1772914630.985184
3198.555000	90371.070000	-11503.215000	-26079.705000	0.000000	0.000000	0.000000	0.000000	-17.334746	-16.083777	-13.764867	-17.562518	0.000000	0.000000	-0.000000	-0.000000	12.955740	-0.396760	-1.312360	-0.081238	0.729857	0.683836	-1.000000	-1.000000	-1.000000	-1.000000	-1.000000	-1.000000	-1.000000	15.034483	0.000000	-1.000000	-1.000000	347186.000000	1772914630.988201
3217.950000	90391.500000	-11488.365000	-26072.010000	0.000000	0.000000	0.000000	0.000000	13.300616	5.308422	8.458343	8.018279	0.000000	0.000000	-0.000000	-0.000000	12.955740	-0.396760	-1.312360	-0.081238	0.729857	0.683836	-1.000000	-1.000000	-1.000000	-1.000000	-1.000000	-1.000000	-1.000000	15.034483	0.000000	-1.000000	-1.000000	347187.000000	1772914630.988204
3229.560000	90391.050000	-11469.960000	-26055.090000	0.000000	0.000000	0.000000	0.000000	36.298325	24.236844	25.400480	27.794162	0.000000	0.000000	-0.000000	-0.000000	12.955740	-0.396760	-1.312360	-0.081238	0.729857	0.683836	-1.000000	-1.000000	-1.000000	-1.000000	-1.000000	-1.000000	-1.000000	15.034483	0.000000	-1.000000	-1.000000	347188.000000	1772914630.991956
3234.960000	90376.380000	-11455.605000	-26039.295000	0.000000	0.000000	0.000000	0.000000	41.063210	30.097311	30.429967	33.360948	0.000000	0.000000	-0.000000	-0.000000	12.955740	-0.396760	-1.312360	-0.081238	0.729857	0.683836	-1.000000	-1.000000	-1.000000	-1.000000	-1.000000	-1.000000	-1.000000	15.034483	0.000000	-1.000000	-1.000000	347189.000000	1772914630.991959
3209.535000	90350.235000	-11477.430000	-26063.865000	0.000000	0.000000	0.000000	0.000000	27.592173	19.587801	23.466031	25.148996	0.000000	0.000000	-0.000000	-0.000000	12.955740	-0.396760	-1.312360	-0.081238	0.729857	0.683836	-1.000000	-1.000000	-1.000000	-1.000000	-1.000000	-1.000000	-1.000000	15.034483	0.000000	-1.000000	-1.000000	347190.000000	1772914630.996514
3168.045000	90325.125000	-11509.740000	-26097.570000	0.000000	0.000000	0.000000	0.000000	2.647754	-1.645838	7.218784	7.256785	0.000000	0.000000	-0.000000	-0.000000	12.955740	-0.396760	-1.312360	-0.081238	0.729857	0.683836	-1.000000	-1.000000	-1.000000	-1.000000	-1.000000	-1.000000	-1.000000	15.034483	0.000000	-1.000000	-1.000000	347191.000000	1772914630.996517
3171.555000	90319.275000	-11510.820000	-26094.600000	0.000000	0.000000	0.000000	0.000000	-23.293576	-22.271552	-12.795647	-13.783631	0.000000	0.000000	-0.000000	-0.000000	12.955740	-0.396760	-1.312360	-0.081238	0.729857	0.683836	-1.000000	-1.000000	-1.000000	-1.000000	-1.000000	-1.000000	-1.000000	15.034483	0.000000	-1.000000	-1.000000	347192.000000	1772914630.999864
3183.615000	90332.595000	-11503.395000	-26086.140000	0.000000	0.000000	0.000000	0.000000	-38.001106	-31.184002	-27.356217	-28.243031	0.000000	0.000000	-0.000000	-0.000000	12.955740	-0.396760	-1.312360	-0.081238	0.729857	0.683836	-1.000000	-1.000000	-1.000000	-1.000000	-1.000000	-1.000000	-1.000000	15.034483	0.000000	-1.000000	-1.000000	347193.000000	1772914630.999867
3192.570000	90357.480000	-11500.875000	-26081.190000	0.000000	0.000000	0.000000	0.000000	-33.840278	-23.386439	-28.613943	-28.466798	0.000000	0.000000	-0.000000	-0.000000	12.955740	-0.396760	-1.312360	-0.081238	0.729857	0.683836	-1.000000	-1.000000	-1.000000	-1.000000	-1.000000	-1.000000	-1.000000	15.034483	0.000000	-1.000000	-1.000000	347194.000000	1772914631.003823
3205.350000	90384.210000	-11488.050000	-26068.770000	0.000000	0.000000	0.000000	0.000000	-14.090132	-2.882502	-16.597292	-15.334600	0.000000	0.000000	-0.000000	-0.000000	12.955740	-0.396760	-1.312360	-0.081238	0.729857	0.683836	-1.000000	-1.000000	-1.000000	-1.000000	-1.000000	-1.000000	-1.000000	15.034483	0.000000	-1.000000	-1.000000	347195.000000	1772914631.003825
3226.725000	90395.595000	-11463.210000	-26044.335000	0.000000	0.000000	0.000000	0.000000	9.904386	19.448010	1.716942	3.307665	0.000000	0.000000	-0.000000	-0.000000	9.964780	1.022420	-3.280900	-0.079040	0.733030	0.679259	-1.000000	-1.000000	-1.000000	-1.000000	-1.000000	-1.000000	-1.000000	15.034483	0.000000	-1.000000	-1.000000	347196.000000	1772914631.007822
3220.155000	90387.045000	-11466.630000	-26049.150000	0.000000	0.000000	0.000000	0.000000	26.608055	31.665165	17.605565	18.441257	0.000000	0.000000	-0.000000	-0.000000	9.964780	1.022420	-3.280900	-0.079040	0.733030	0.679259	-1.000000	-1.000000	-1.000000	-1.000000	-1.000000	-1.000000	-1.000000	15.034483	0.000000	-1.000000	-1.000000	347197.000000	1772914631.007825
3187.800000	90360.450000	-11492.820000	-26079.390000	0.000000	0.000000	0.000000	0.000000	28.807239	27.039460	23.608822	22.965361	0.000000	0.000000	-0.000000	-0.000000	9.964780	1.022420	-3.280900	-0.079040	0.733030	0.679259	-1.000000	-1.000000	-1.000000	-1.000000	-1.000000	-1.000000	-1.000000	15.034483	0.000000	-1.000000	-1.000000	347198.000000	1772914631.011851
3161.835000	90335.340000	-11508.840000	-26102.565000	0.000000	0.000000	0.000000	0.000000	15.759925	7.756032	16.474594	14.224979	0.000000	0.000000	-0.000000	-0.000000	9.964780	1.022420	-3.280900	-0.079040	0.733030	0.679259	-1.000000	-1.000000	-1.000000	-1.000000	-1.000000	-1.000000	-1.000000	15.034483	0.000000	-1.000000	-1.000000	347199.000000	1772914631.011854
3182.220000	90322.380000	-11496.735000	-26083.350000	0.000000	0.000000	0.000000	0.000000	-4.643578	-15.951093	0.940608	-2.304914	0.000000	0.000000	-0.000000	-0.000000	9.964780	1.022420	-3.280900	-0.079040	0.733030	0.679259	-1.000000	-1.000000	-1.000000	-1.000000	-1.000000	-1.000000	-1.000000	15.034483	0.000000	-1.000000	-1.000000	347200.000000	1772914631.015888
3192.885000	90326.970000	-11495.655000	-26070.930000	0.000000	0.000000	0.000000	0.000000	-19.077851	-31.286810	-12.426168	-14.931133	0.000000	0.000000	-0.000000	-0.000000	9.964780	1.022420	-3.280900	-0.079040	0.733030	0.679259	-1.000000	-1.000000	-1.000000	-1.000000	-1.000000	-1.000000	-1.000000	15.034483	0.000000	-1.000000	-1.000000	347201.000000	1772914631.015891
3233.565000	90350.010000	-11456.640000	-26033.715000	0.000000	0.000000	0.000000	0.000000	-18.557401	-30.019882	-15.331540	-14.964352	-0.000000	0.000000	-0.000000	-0.000000	9.964780	1.022420	-3.280900	-0.079040	0.733030	0.679259	-1.000000	-1.000000	-1.000000	-1.000000	-1.000000	-1.000000	-1.000000	15.034483	0.000000	-1.000000	-1.000000	347202.000000	1772914631.019829
3237.120000	90374.130000	-11463.390000	-26035.245000	0.000000	0.000000	0.000000	0.000000	-5.026576	-12.916921	-7.347543	-3.632225	-0.000000	0.000000	-0.000000	-0.000000	9.964780	1.022420	-3.280900	-0.079040	0.733030	0.679259	-1.000000	-1.000000	-1.000000	-1.000000	-1.000000	-1.000000	-1.000000	15.034483	0.000000	-1.000000	-1.000000	347203.000000	1772914631.019832
3200.580000	90387.000000	-11504.655000	-26075.115000	0.000000	0.000000	0.000000	0.000000	10.105513	10.717374	3.540673	8.778436	-0.000000	0.000000	-0.000000	-0.000000	9.964780	1.022420	-3.280900	-0.079040	0.733030	0.679259	-1.000000	-1.000000	-1.000000	-1.000000	-1.000000	-1.000000	-1.000000	15.034483	0.000000	-1.000000	-1.000000	347204.000000	1772914631.023816
3206.250000	90385.920000	-11488.770000	-26063.820000	0.000000	0.000000	0.000000	0.000000	14.772633	28.153987	7.590304	11.592037	-0.000000	0.000000	-0.000000	-0.000000	9.964780	1.022420	-3.280900	-0.079040	0.733030	0.679259	-1.000000	-1.000000	-1.000000	-1.000000	-1.000000	-1.000000	-1.000000	15.034483	0.000000	-1.000000	-1.000000	347205.000000	1772914631.023818
3219.975000	90368.190000	-11452.230000	-26036.820000	0.000000	0.000000	0.000000	0.000000	7.402128	30.354207	4.210177	4.666067	-0.000000	0.000000	-0.000000	-0.000000	6.210820	2.060100	-2.823100	-0.078918	0.743650	0.675902	-1.000000	-1.000000	-1.000000	-1.000000	-1.000000	-1.000000	-1.000000	15.034483	0.000000	-1.000000	-1.000000	347206.000000	1772914631.029129
3202.920000	90343.665000	-11456.955000	-26052.210000	0.000000	0.000000	0.000000	0.000000	-3.621346	16.666877	0.766945	-3.350727	-0.000000	0.000000	-0.000000	-0.000000	6.210820	2.060100	-2.823100	-0.078918	0.743650	0.675902	-1.000000	-1.000000	-1.000000	-1.000000	-1.000000	-1.000000	-1.000000	15.034483	0.000000	-1.000000	-1.000000	347207.000000	1772914631.029132
3183.705000	90317.160000	-11473.605000	-26074.170000	0.000000	0.000000	0.000000	0.000000	-11.093356	-5.444837	0.528839	-7.269178	-0.000000	0.000000	-0.000000	-0.000000	6.210820	2.060100	-2.823100	-0.078918	0.743650	0.675902	-1.000000	-1.000000	-1.000000	-1.000000	-1.000000	-1.000000	-1.000000	15.034483	0.000000	-1.000000	-1.000000	347208.000000	1772914631.031909
3209.355000	90304.560000	-11481.570000	-26062.380000	0.000000	0.000000	0.000000	0.000000	-12.919070	-24.729846	0.081658	-8.127423	-0.000000	0.000000	-0.000000	-0.000000	6.210820	2.060100	-2.823100	-0.078918	0.743650	0.675902	-1.000000	-1.000000	-1.000000	-1.000000	-1.000000	-1.000000	-1.000000	15.034483	0.000000	-1.000000	-1.000000	347209.000000	1772914631.031913
3240.270000	90328.545000	-11455.470000	-26028.315000	0.000000	0.000000	0.000000	0.000000	-8.084331	-31.356997	-2.456172	-6.176772	-0.000000	0.000000	-0.000000	-0.000000	6.210820	2.060100	-2.823100	-0.078918	0.743650	0.675902	-1.000000	-1.000000	-1.000000	-1.000000	-1.000000	-1.000000	-1.000000	15.034483	0.000000	-1.000000	-1.000000	347210.000000	1772914631.035886
3234.510000	90356.850000	-11463.210000	-26034.120000	0.000000	0.000000	0.000000	0.000000	2.429985	-21.176869	-4.280150	-0.222343	-0.000000	0.000000	-0.000000	-0.000000	6.210820	2.060100	-2.823100	-0.078918	0.743650	0.675902	-1.000000	-1.000000	-1.000000	-1.000000	-1.000000	-1.000000	-1.000000	15.034483	0.000000	-1.000000	-1.000000	347211.000000	1772914631.035889
3212.595000	90374.805000	-11490.120000	-26055.855000	0.000000	0.000000	0.000000	0.000000	12.024161	1.138158	-3.794432	6.635446	-0.000000	0.000000	-0.000000	-0.000000	6.210820	2.060100	-2.823100	-0.078918	0.743650	0.675902	-1.000000	-1.000000	-1.000000	-1.000000	-1.000000	-1.000000	-1.000000	15.034483	0.000000	-1.000000	-1.000000	347212.000000	1772914631.039933
3196.890000	90378.180000	-11504.205000	-26071.875000	0.000000	0.000000	0.000000	0.000000	12.900382	23.327963	-3.412099	8.139463	-0.000000	0.000000	-0.000000	-0.000000	6.210820	2.060100	-2.823100	-0.078918	0.743650	0.675902	-1.000000	-1.000000	-1.000000	-1.000000	-1.000000	-1.000000	-1.000000	15.034483	0.000000	-1.000000	-1.000000	347213.000000	1772914631.039935
3208.455000	90365.130000	-11485.395000	-26075.970000	0.000000	0.000000	0.000000	0.000000	4.612362	32.844660	-4.145507	2.559183	-0.000000	0.000000	-0.000000	-0.000000	6.210820	2.060100	-2.823100	-0.078918	0.743650	0.675902	-1.000000	-1.000000	-1.000000	-1.000000	-1.000000	-1.000000	-1.000000	15.034483	0.000000	-1.000000	-1.000000	347214.000000	1772914631.043914
3178.170000	90338.445000	-11502.315000	-26098.425000	0.000000	0.000000	0.000000	0.000000	-5.908190	24.575065	-3.347554	-5.496794	-0.000000	0.000000	-0.000000	-0.000000	6.210820	2.060100	-2.823100	-0.078918	0.743650	0.675902	-1.000000	-1.000000	-1.000000	-1.000000	-1.000000	-1.000000	-1.000000	15.034483	0.000000	-1.000000	-1.000000	347215.000000	1772914631.043917
3153.015000	90313.830000	-11519.640000	-26109.765000	0.000000	0.000000	0.000000	0.000000	-12.640576	3.288415	-0.070830	-10.569201	-0.000000	0.000000	-0.000000	-0.000000	3.876040	0.427280	-2.639980	-0.084472	0.748960	0.678892	-1.000000	-1.000000	-1.000000	-1.000000	-1.000000	-1.000000	-1.000000	15.034483	0.000000	-1.000000	-1.000000	347216.000000	1772914631.047937
3166.200000	90306.540000	-11506.995000	-26098.740000	0.000000	0.000000	0.000000	0.000000	-13.736664	-19.401693	3.420008	-9.841024	-0.000000	0.000000	-0.000000	-0.000000	3.876040	0.427280	-2.639980	-0.084472	0.748960	0.678892	-1.000000	-1.000000	-1.000000	-1.000000	-1.000000	-1.000000	-1.000000	15.034483	0.000000	-1.000000	-1.000000	347217.000000	1772914631.047940
3184.470000	90313.155000	-11503.620000	-26095.140000	0.000000	0.000000	0.000000	0.000000	-8.207417	-31.349855	6.008672	-3.022497	-0.000000	0.000000	-0.000000	-0.000000	3.876040	0.427280	-2.639980	-0.084472	0.748960	0.678892	-1.000000	-1.000000	-1.000000	-1.000000	-1.000000	-1.000000	-1.000000	15.034483	0.000000	-1.000000	-1.000000	347218.000000	1772914631.051852
3191.085000	90334.935000	-11503.845000	-26093.430000	0.000000	0.000000	0.000000	0.000000	3.264991	-26.460366	7.994746	7.033692	-0.000000	0.000000	-0.000000	-0.000000	3.876040	0.427280	-2.639980	-0.084472	0.748960	0.678892	-1.000000	-1.000000	-1.000000	-1.000000	-1.000000	-1.000000	-1.000000	15.034483	0.000000	-1.000000	-1.000000	347219.000000	1772914631.051855
3209.085000	90357.885000	-11494.215000	-26075.655000	0.000000	0.000000	0.000000	0.000000	15.650812	-7.754487	8.753255	15.306390	-0.000000	0.000000	-0.000000	-0.000000	3.876040	0.427280	-2.639980	-0.084472	0.748960	0.678892	-1.000000	-1.000000	-1.000000	-1.000000	-1.000000	-1.000000	-1.000000	15.034483	0.000000	-1.000000	-1.000000	347220.000000	1772914631.056250
3232.620000	90374.265000	-11467.350000	-26046.540000	0.000000	0.000000	0.000000	0.000000	22.776774	14.712692	7.920255	18.607019	-0.000000	0.000000	-0.000000	-0.000000	3.876040	0.427280	-2.639980	-0.084472	0.748960	0.678892	-1.000000	-1.000000	-1.000000	-1.000000	-1.000000	-1.000000	-1.000000	15.034483	0.000000	-1.000000	-1.000000	347221.000000	1772914631.056253
3234.780000	90369.855000	-11459.880000	-26043.075000	0.000000	0.000000	0.000000	0.000000	21.618921	29.290611	6.320929	16.781567	-0.000000	0.000000	-0.000000	-0.000000	3.876040	0.427280	-2.639980	-0.084472	0.748960	0.678892	-1.000000	-1.000000	-1.000000	-1.000000	-1.000000	-1.000000	-1.000000	15.034483	0.000000	-1.000000	-1.000000	347222.000000	1772914631.059958
3219.795000	90347.625000	-11470.095000	-26057.790000	0.000000	0.000000	0.000000	0.000000	12.208110	28.474859	3.716355	9.951147	-0.000000	0.000000	-0.000000	-0.000000	3.876040	0.427280	-2.639980	-0.084472	0.748960	0.678892	-1.000000	-1.000000	-1.000000	-1.000000	-1.000000	-1.000000	-1.000000	15.034483	0.000000	-1.000000	-1.000000	347223.000000	1772914631.059961
3188.835000	90321.660000	-11493.540000	-26081.640000	0.000000	0.000000	0.000000	0.000000	-3.403877	12.601128	-1.828604	-1.983577	-0.000000	0.000000	-0.000000	-0.000000	3.876040	0.427280	-2.639980	-0.084472	0.748960	0.678892	-1.000000	-1.000000	-1.000000	-1.000000	-1.000000	-1.000000	-1.000000	15.034483	0.000000	-1.000000	-1.000000	347224.000000	1772914631.063958
3165.660000	90307.800000	-11509.830000	-26098.605000	0.000000	0.000000	0.000000	0.000000	-20.565478	-10.002116	-10.651917	-16.425727	-0.000000	0.000000	-0.000000	-0.000000	3.876040	0.427280	-2.639980	-0.084472	0.748960	0.678892	-1.000000	-1.000000	-1.000000	-1.000000	-1.000000	-1.000000	-1.000000	15.034483	0.000000	-1.000000	-1.000000	347225.000000	1772914631.063961
3185.685000	90314.280000	-11488.545000	-26082.540000	0.000000	0.000000	0.000000	0.000000	-31.696310	-27.095691	-18.501227	-26.821504	-0.000000	0.000000	-0.000000	-0.000000	10.682000	-1.007160	-0.900340	-0.089721	0.737974	0.684080	-1.000000	-1.000000	-1.000000	-1.000000	-1.000000	-1.000000	-1.000000	15.034483	0.000000	-1.000000	-1.000000	347226.000000	1772914631.068011
3207.510000	90336.735000	-11468.790000	-26063.145000	0.000000	0.000000	0.000000	0.000000	-29.234585	-29.252975	-18.573673	-26.032320	-0.000000	0.000000	-0.000000	-0.000000	10.682000	-1.007160	-0.900340	-0.089721	0.737974	0.684080	-1.000000	-1.000000	-1.000000	-1.000000	-1.000000	-1.000000	-1.000000	15.034483	0.000000	-1.000000	-1.000000	347227.000000	1772914631.068014
3223.755000	90356.175000	-11477.700000	-26054.100000	0.000000	0.000000	0.000000	0.000000	-12.244307	-15.465616	-8.720428	-12.704256	-0.000000	0.000000	-0.000000	-0.000000	10.682000	-1.007160	-0.900340	-0.089721	0.737974	0.684080	-1.000000	-1.000000	-1.000000	-1.000000	-1.000000	-1.000000	-1.000000	15.034483	0.000000	-1.000000	-1.000000	347228.000000	1772914631.071865
3214.080000	90370.080000	-11496.870000	-26061.975000	0.000000	0.000000	0.000000	0.000000	10.305438	6.122993	4.520102	5.836311	-0.000000	0.000000	-0.000000	-0.000000	10.682000	-1.007160	-0.900340	-0.089721	0.737974	0.684080	-1.000000	-1.000000	-1.000000	-1.000000	-1.000000	-1.000000	-1.000000	15.034483	0.000000	-1.000000	-1.000000	347229.000000	1772914631.071868
3221.145000	90369.270000	-11479.320000	-26048.520000	0.000000	0.000000	0.000000	0.000000	25.589098	23.310383	12.444185	19.074400	-0.000000	0.000000	-0.000000	-0.000000	10.682000	-1.007160	-0.900340	-0.089721	0.737974	0.684080	-1.000000	-1.000000	-1.000000	-1.000000	-1.000000	-1.000000	-1.000000	15.034483	0.000000	-1.000000	-1.000000	347230.000000	1772914631.075830
3227.220000	90355.320000	-11460.465000	-26035.020000	0.000000	0.000000	0.000000	0.000000	26.883138	27.086682	13.136505	21.829052	-0.000000	0.000000	-0.000000	-0.000000	10.682000	-1.007160	-0.900340	-0.089721	0.737974	0.684080	-1.000000	-1.000000	-1.000000	-1.000000	-1.000000	-1.000000	-1.000000	15.034483	0.000000	-1.000000	-1.000000	347231.000000	1772914631.075832
3259.845000	90334.710000	-11419.920000	-26003.025000	0.000000	0.000000	0.000000	0.000000	17.389702	16.194121	11.070181	16.583187	-0.000000	0.000000	-0.000000	-0.000000	10.682000	-1.007160	-0.900340	-0.089721	0.737974	0.684080	-1.000000	-1.000000	-1.000000	-1.000000	-1.000000	-1.000000	-1.000000	15.034483	0.000000	-1.000000	-1.000000	347232.000000	1772914631.079928
3279.060000	90319.455000	-11392.380000	-25976.070000	0.000000	0.000000	0.000000	0.000000	5.544290	-2.877455	10.389845	9.136820	-0.000000	0.000000	-0.000000	-0.000000	10.682000	-1.007160	-0.900340	-0.089721	0.737974	0.684080	-1.000000	-1.000000	-1.000000	-1.000000	-1.000000	-1.000000	-1.000000	15.034483	0.000000	-1.000000	-1.000000	347233.000000	1772914631.079930
3259.755000	90317.655000	-11410.290000	-26002.530000	0.000000	0.000000	0.000000	0.000000	-3.133883	-19.706349	10.061176	2.521828	-0.000000	0.000000	-0.000000	-0.000000	10.682000	-1.007160	-0.900340	-0.089721	0.737974	0.684080	-1.000000	-1.000000	-1.000000	-1.000000	-1.000000	-1.000000	-1.000000	15.034483	0.000000	-1.000000	-1.000000	347234.000000	1772914631.087995
3182.805000	90330.255000	-11489.400000	-26086.680000	0.000000	0.000000	0.000000	0.000000	-10.597194	-25.467999	3.818579	-6.297297	-0.000000	0.000000	-0.000000	-0.000000	10.682000	-1.007160	-0.900340	-0.089721	0.737974	0.684080	-1.000000	-1.000000	-1.000000	-1.000000	-1.000000	-1.000000	-1.000000	15.034483	0.000000	-1.000000	-1.000000	347235.000000	1772914631.087999
3161.970000	90351.720000	-11523.195000	-26120.340000	0.000000	0.000000	0.000000	0.000000	-20.921751	-17.427651	-12.609154	-20.876862	-0.000000	0.000000	-0.000000	-0.000000	18.785060	0.442540	-0.564620	-0.087341	0.727049	0.685545	-1.000000	-1.000000	-1.000000	-1.000000	-1.000000	-1.000000	-1.000000	15.034483	0.000000	-1.000000	-1.000000	347236.000000	1772914631.090801
3179.160000	90370.845000	-11529.090000	-26110.440000	0.000000	0.000000	0.000000	0.000000	-30.062949	-0.157155	-32.187615	-35.098356	-0.000000	0.000000	-0.000000	-0.000000	18.785060	0.442540	-0.564620	-0.087341	0.727049	0.685545	-1.000000	-1.000000	-1.000000	-1.000000	-1.000000	-1.000000	-1.000000	15.034483	0.000000	-1.000000	-1.000000	347237.000000	1772914631.090804
3273.480000	90380.475000	-11441.160000	-26021.385000	0.000000	0.000000	0.000000	0.000000	-25.924421	17.071368	-38.277356	-34.085953	-0.000000	0.000000	-0.000000	-0.000000	18.785060	0.442540	-0.564620	-0.087341	0.727049	0.685545	-1.000000	-1.000000	-1.000000	-1.000000	-1.000000	-1.000000	-1.000000	15.034483	0.000000	-1.000000	-1.000000	347238.000000	1772914631.093937
3285.360000	90367.380000	-11409.300000	-25985.970000	0.000000	0.000000	0.000000	0.000000	-2.388363	25.104535	-19.466764	-9.357391	-0.000000	0.000000	-0.000000	-0.000000	18.785060	0.442540	-0.564620	-0.087341	0.727049	0.685545	-1.000000	-1.000000	-1.000000	-1.000000	-1.000000	-1.000000	-1.000000	15.034483	0.000000	-1.000000	-1.000000	347239.000000	1772914631.093940
3209.085000	90337.185000	-11479.815000	-26067.555000	0.000000	0.000000	0.000000	0.000000	27.352095	19.330610	14.723211	26.372427	-0.000000	0.000000	-0.000000	-0.000000	18.785060	0.442540	-0.564620	-0.087341	0.727049	0.685545	-1.000000	-1.000000	-1.000000	-1.000000	-1.000000	-1.000000	-1.000000	15.034483	0.000000	-1.000000	-1.000000	347240.000000	1772914631.095800
3157.200000	90311.805000	-11520.495000	-26107.605000	0.000000	0.000000	0.000000	0.000000	38.754227	2.200476	37.930969	45.628750	-0.000000	0.000000	-0.000000	-0.000000	18.785060	0.442540	-0.564620	-0.087341	0.727049	0.685545	-1.000000	-1.000000	-1.000000	-1.000000	-1.000000	-1.000000	-1.000000	15.034483	0.000000	-1.000000	-1.000000	347241.000000	1772914631.095804
3137.355000	90302.850000	-11531.250000	-26123.175000	0.000000	0.000000	0.000000	0.000000	21.813682	-17.203060	33.435972	33.877328	-0.000000	0.000000	-0.000000	-0.000000	18.785060	0.442540	-0.564620	-0.087341	0.727049	0.685545	-1.000000	-1.000000	-1.000000	-1.000000	-1.000000	-1.000000	-1.000000	15.034483	0.000000	-1.000000	-1.000000	347242.000000	1772914631.102583
3193.380000	90317.610000	-11476.395000	-26068.770000	0.000000	0.000000	0.000000	0.000000	-7.342648	-27.622979	10.768801	4.618289	-0.000000	0.000000	-0.000000	-0.000000	18.785060	0.442540	-0.564620	-0.087341	0.727049	0.685545	-1.000000	-1.000000	-1.000000	-1.000000	-1.000000	-1.000000	-1.000000	15.034483	0.000000	-1.000000	-1.000000	347243.000000	1772914631.102586
3256.065000	90343.935000	-11436.705000	-26026.290000	0.000000	0.000000	0.000000	0.000000	-22.519564	-22.334386	-7.083776	-16.099560	-0.000000	0.000000	-0.000000	-0.000000	18.785060	0.442540	-0.564620	-0.087341	0.727049	0.685545	-1.000000	-1.000000	-1.000000	-1.000000	-1.000000	-1.000000	-1.000000	15.034483	0.000000	-1.000000	-1.000000	347244.000000	1772914631.104140
3293.595000	90369.810000	-11417.130000	-26016.030000	0.000000	0.000000	0.000000	0.000000	-11.835449	-3.639128	-7.318952	-14.921650	-0.000000	0.000000	-0.000000	-0.000000	18.785060	0.442540	-0.564620	-0.087341	0.727049	0.685545	-1.000000	-1.000000	-1.000000	-1.000000	-1.000000	-1.000000	-1.000000	15.034483	0.000000	-1.000000	-1.000000	347245.000000	1772914631.104142
3249.450000	90375.210000	-11477.835000	-26061.075000	0.000000	0.000000	0.000000	0.000000	12.175539	18.044007	2.637709	-0.858144	-0.000000	0.000000	-0.000000	-0.000000	19.410720	6.744920	-3.860780	-0.076477	0.732481	0.679869	-1.000000	-1.000000	-1.000000	-1.000000	-1.000000	-1.000000	-1.000000	15.034483	0.000000	-1.000000	-1.000000	347246.000000	1772914631.107959
3222.945000	90361.710000	-11526.210000	-26092.755000	0.000000	0.000000	0.000000	0.000000	25.283744	30.116343	5.532294	7.225824	-0.000000	0.000000	-0.000000	-0.000000	19.410720	6.744920	-3.860780	-0.076477	0.732481	0.679869	-1.000000	-1.000000	-1.000000	-1.000000	-1.000000	-1.000000	-1.000000	15.034483	0.000000	-1.000000	-1.000000	347247.000000	1772914631.107961
3201.210000	90341.460000	-11528.055000	-26120.565000	0.000000	0.000000	0.000000	0.000000	14.927516	25.438158	-6.020050	0.213930	-0.000000	0.000000	-0.000000	-0.000000	19.410720	6.744920	-3.860780	-0.076477	0.732481	0.679869	-1.000000	-1.000000	-1.000000	-1.000000	-1.000000	-1.000000	-1.000000	15.034483	0.000000	-1.000000	-1.000000	347248.000000	1772914631.111948
3233.565000	90326.160000	-11448.720000	-26098.650000	0.000000	0.000000	0.000000	0.000000	-9.375833	6.885533	-20.368191	-14.311080	-0.000000	0.000000	-0.000000	-0.000000	19.410720	6.744920	-3.860780	-0.076477	0.732481	0.679869	-1.000000	-1.000000	-1.000000	-1.000000	-1.000000	-1.000000	-1.000000	15.034483	0.000000	-1.000000	-1.000000	347249.000000	1772914631.111951
3330.855000	90320.805000	-11403.675000	-26007.120000	0.000000	0.000000	0.000000	0.000000	-25.816887	-14.631968	-19.411702	-20.071982	-0.000000	0.000000	-0.000000	-0.000000	19.410720	6.744920	-3.860780	-0.076477	0.732481	0.679869	-1.000000	-1.000000	-1.000000	-1.000000	-1.000000	-1.000000	-1.000000	15.034483	0.000000	-1.000000	-1.000000	347250.000000	1772914631.115951
3392.145000	90328.905000	-11431.935000	-25916.985000	0.000000	0.000000	0.000000	0.000000	-19.007617	-27.207843	-0.597390	-5.827560	-0.000000	0.000000	-0.000000	-0.000000	19.410720	6.744920	-3.860780	-0.076477	0.732481	0.679869	-1.000000	-1.000000	-1.000000	-1.000000	-1.000000	-1.000000	-1.000000	15.034483	0.000000	-1.000000	-1.000000	347251.000000	1772914631.115954
3286.980000	90340.740000	-11573.505000	-26006.445000	0.000000	0.000000	0.000000	0.000000	3.688699	-24.874417	16.710758	20.751249	-0.000000	0.000000	-0.000000	-0.000000	19.410720	6.744920	-3.860780	-0.076477	0.732481	0.679869	-1.000000	-1.000000	-1.000000	-1.000000	-1.000000	-1.000000	-1.000000	15.034483	0.000000	-1.000000	-1.000000	347252.000000	1772914631.119963
3169.890000	90357.435000	-11673.810000	-26156.025000	0.000000	0.000000	0.000000	0.000000	15.150096	-10.217228	10.366560	32.439977	-0.000000	0.000000	-0.000000	-0.000000	19.410720	6.744920	-3.860780	-0.076477	0.732481	0.679869	-1.000000	-1.000000	-1.000000	-1.000000	-1.000000	-1.000000	-1.000000	15.034483	0.000000	-1.000000	-1.000000	347253.000000	1772914631.119965
3096.630000	90368.145000	-11675.790000	-26205.120000	0.000000	0.000000	0.000000	0.000000	-2.550428	8.187311	-17.969638	9.386862	-0.000000	0.000000	-0.000000	-0.000000	19.410720	6.744920	-3.860780	-0.076477	0.732481	0.679869	-1.000000	-1.000000	-1.000000	-1.000000	-1.000000	-1.000000	-1.000000	15.034483	0.000000	-1.000000	-1.000000	347254.000000	1772914631.123960
3227.760000	90374.760000	-11475.135000	-26045.595000	0.000000	0.000000	0.000000	0.000000	-33.280139	21.044226	-37.597664	-30.599344	-0.000000	0.000000	-0.000000	-0.000000	19.410720	6.744920	-3.860780	-0.076477	0.732481	0.679869	-1.000000	-1.000000	-1.000000	-1.000000	-1.000000	-1.000000	-1.000000	15.034483	0.000000	-1.000000	-1.000000	347255.000000	1772914631.123963
3305.565000	90361.260000	-11395.080000	-25975.305000	0.000000	0.000000	0.000000	0.000000	-40.174867	22.736037	-17.368888	-45.085950	-0.000000	0.000000	-0.000000	-0.000000	6.531280	12.528460	-8.637160	-0.070801	0.753477	0.670531	-1.000000	-1.000000	-1.000000	-1.000000	-1.000000	-1.000000	-1.000000	15.034483	0.000000	-1.000000	-1.000000	347256.000000	1772914631.128166
3268.980000	90334.125000	-11414.295000	-26025.390000	0.000000	0.000000	0.000000	0.000000	-8.452333	12.911167	35.575692	-17.357558	-0.000000	0.000000	-0.000000	-0.000000	6.531280	12.528460	-8.637160	-0.070801	0.753477	0.670531	-1.000000	-1.000000	-1.000000	-1.000000	-1.000000	-1.000000	-1.000000	15.034483	0.000000	-1.000000	-1.000000	347257.000000	1772914631.128170
3258.495000	90310.275000	-11449.620000	-26043.075000	0.000000	0.000000	0.000000	0.000000	35.945447	-3.873613	76.917895	24.295714	-0.000000	0.000000	-0.000000	-0.000000	6.531280	12.528460	-8.637160	-0.070801	0.753477	0.670531	-1.000000	-1.000000	-1.000000	-1.000000	-1.000000	-1.000000	-1.000000	15.034483	0.000000	-1.000000	-1.000000	347258.000000	1772914631.132043
3306.780000	90313.245000	-11431.305000	-25981.605000	0.000000	0.000000	0.000000	0.000000	58.428725	-19.302925	71.178230	44.724491	-0.000000	0.000000	-0.000000	-0.000000	6.531280	12.528460	-8.637160	-0.070801	0.753477	0.670531	-1.000000	-1.000000	-1.000000	-1.000000	-1.000000	-1.000000	-1.000000	15.034483	0.000000	-1.000000	-1.000000	347259.000000	1772914631.132046
3297.330000	90329.895000	-11459.205000	-25960.770000	0.000000	0.000000	0.000000	0.000000	49.412003	-24.539986	23.374721	37.361055	-0.000000	0.000000	-0.000000	-0.000000	6.531280	12.528460	-8.637160	-0.070801	0.753477	0.670531	-1.000000	-1.000000	-1.000000	-1.000000	-1.000000	-1.000000	-1.000000	15.034483	0.000000	-1.000000	-1.000000	347260.000000	1772914631.135990
3295.170000	90353.430000	-11505.690000	-26010.855000	0.000000	0.000000	0.000000	0.000000	20.579309	-15.732768	-35.317320	15.052874	-0.000000	0.000000	-0.000000	-0.000000	6.531280	12.528460	-8.637160	-0.070801	0.753477	0.670531	-1.000000	-1.000000	-1.000000	-1.000000	-1.000000	-1.000000	-1.000000	15.034483	0.000000	-1.000000	-1.000000	347261.000000	1772914631.135993
3273.120000	90371.295000	-11527.605000	-26057.070000	0.000000	0.000000	0.000000	0.000000	-12.218225	2.624542	-75.873354	-11.563853	-0.000000	0.000000	-0.000000	-0.000000	6.531280	12.528460	-8.637160	-0.070801	0.753477	0.670531	-1.000000	-1.000000	-1.000000	-1.000000	-1.000000	-1.000000	-1.000000	15.034483	0.000000	-1.000000	-1.000000	347262.000000	1772914631.139838
3325.140000	90374.985000	-11498.400000	-26051.850000	0.000000	0.000000	0.000000	0.000000	-35.518616	20.145783	-83.008618	-35.053570	-0.000000	0.000000	-0.000000	-0.000000	6.531280	12.528460	-8.637160	-0.070801	0.753477	0.670531	-1.000000	-1.000000	-1.000000	-1.000000	-1.000000	-1.000000	-1.000000	15.034483	0.000000	-1.000000	-1.000000	347263.000000	1772914631.139842
3374.280000	90363.015000	-11479.770000	-25955.910000	0.000000	0.000000	0.000000	0.000000	-39.615880	26.868794	-55.943195	-43.744355	-0.000000	0.000000	-0.000000	-0.000000	6.531280	12.528460	-8.637160	-0.070801	0.753477	0.670531	-1.000000	-1.000000	-1.000000	-1.000000	-1.000000	-1.000000	-1.000000	15.034483	0.000000	-1.000000	-1.000000	347264.000000	1772914631.143874
3344.670000	90337.770000	-11524.995000	-25906.140000	0.000000	0.000000	0.000000	0.000000	-24.744143	18.910862	-9.578040	-27.701521	-0.000000	0.000000	-0.000000	-0.000000	6.531280	12.528460	-8.637160	-0.070801	0.753477	0.670531	-1.000000	-1.000000	-1.000000	-1.000000	-1.000000	-1.000000	-1.000000	15.034483	0.000000	-1.000000	-1.000000	347265.000000	1772914631.143877
3251.745000	90308.610000	-11575.620000	-25927.695000	0.000000	0.000000	0.000000	0.000000	-5.834796	0.278239	30.711940	5.905108	-0.000000	0.000000	-0.000000	-0.000000	-0.793520	15.839880	-4.730600	-0.071411	0.795957	0.669859	-1.000000	-1.000000	-1.000000	-1.000000	-1.000000	-1.000000	-1.000000	15.034483	0.000000	-1.000000	-1.000000	347266.000000	1772914631.147952
3277.440000	90301.410000	-11533.050000	-25948.620000	0.000000	0.000000	0.000000	0.000000	0.707896	-19.325674	47.209044	33.065028	-0.000000	0.000000	-0.000000	-0.000000	-0.793520	15.839880	-4.730600	-0.071411	0.795957	0.669859	-1.000000	-1.000000	-1.000000	-1.000000	-1.000000	-1.000000	-1.000000	15.034483	0.000000	-1.000000	-1.000000	347267.000000	1772914631.147955
3276.225000	90307.215000	-11513.295000	-26000.550000	0.000000	0.000000	0.000000	0.000000	-4.030697	-29.256047	42.992208	34.209738	-0.000000	0.000000	-0.000000	-0.000000	-0.793520	15.839880	-4.730600	-0.071411	0.795957	0.669859	-1.000000	-1.000000	-1.000000	-1.000000	-1.000000	-1.000000	-1.000000	15.034483	0.000000	-1.000000	-1.000000	347268.000000	1772914631.152181
3223.035000	90328.050000	-11556.000000	-26075.970000	0.000000	0.000000	0.000000	0.000000	-7.640809	-23.736945	30.654564	9.460857	-0.000000	0.000000	-0.000000	-0.000000	-0.793520	15.839880	-4.730600	-0.071411	0.795957	0.669859	-1.000000	-1.000000	-1.000000	-1.000000	-1.000000	-1.000000	-1.000000	15.034483	0.000000	-1.000000	-1.000000	347269.000000	1772914631.152184
3244.185000	90351.180000	-11558.880000	-26139.105000	0.000000	0.000000	0.000000	0.000000	-4.307201	-5.376273	16.035260	-25.346599	-0.000000	0.000000	-0.000000	-0.000000	-0.793520	15.839880	-4.730600	-0.071411	0.795957	0.669859	-1.000000	-1.000000	-1.000000	-1.000000	-1.000000	-1.000000	-1.000000	15.034483	0.000000	-1.000000	-1.000000	347270.000000	1772914631.155916
3277.800000	90359.460000	-11615.715000	-26081.910000	0.000000	0.000000	0.000000	0.000000	5.251279	16.203598	-0.287412	-48.186926	-0.000000	0.000000	-0.000000	-0.000000	-0.793520	15.839880	-4.730600	-0.071411	0.795957	0.669859	-1.000000	-1.000000	-1.000000	-1.000000	-1.000000	-1.000000	-1.000000	15.034483	0.000000	-1.000000	-1.000000	347271.000000	1772914631.155919
3304.620000	90348.390000	-11647.260000	-26074.395000	0.000000	0.000000	0.000000	0.000000	19.078637	29.441482	-16.373114	-41.570434	-0.000000	0.000000	-0.000000	-0.000000	-0.793520	15.839880	-4.730600	-0.071411	0.795957	0.669859	-1.000000	-1.000000	-1.000000	-1.000000	-1.000000	-1.000000	-1.000000	15.034483	0.000000	-1.000000	-1.000000	347272.000000	1772914631.159866
3373.650000	90331.245000	-11529.855000	-25996.860000	0.000000	0.000000	0.000000	0.000000	32.529973	27.186323	-25.234163	-5.642952	-0.000000	0.000000	-0.000000	-0.000000	-0.793520	15.839880	-4.730600	-0.071411	0.795957	0.669859	-1.000000	-1.000000	-1.000000	-1.000000	-1.000000	-1.000000	-1.000000	15.034483	0.000000	-1.000000	-1.000000	347273.000000	1772914631.159869
3290.130000	90302.400000	-11599.875000	-26082.540000	0.000000	0.000000	0.000000	0.000000	37.464785	10.821714	-18.598535	38.474872	-0.000000	0.000000	-0.000000	-0.000000	-0.793520	15.839880	-4.730600	-0.071411	0.795957	0.669859	-1.000000	-1.000000	-1.000000	-1.000000	-1.000000	-1.000000	-1.000000	15.034483	0.000000	-1.000000	-1.000000	347274.000000	1772914631.163819
3354.480000	90295.110000	-11468.700000	-25944.570000	0.000000	0.000000	0.000000	0.000000	26.448792	-10.685410	1.090996	64.506165	-0.000000	0.000000	-0.000000	-0.000000	-0.793520	15.839880	-4.730600	-0.071411	0.795957	0.669859	-1.000000	-1.000000	-1.000000	-1.000000	-1.000000	-1.000000	-1.000000	15.034483	0.000000	-1.000000	-1.000000	347275.000000	1772914631.163821
3383.055000	90307.170000	-11253.600000	-25820.865000	0.000000	0.000000	0.000000	0.000000	3.453612	-25.563438	26.329875	65.242262	-0.000000	0.000000	-0.000000	-0.000000	-45.062780	19.960080	-3.158820	-0.069580	0.828001	0.644163	-1.000000	-1.000000	-1.000000	-1.000000	-1.000000	-1.000000	-1.000000	15.034483	0.000000	-1.000000	-1.000000	347276.000000	1772914631.167974
3222.045000	90315.540000	-11469.555000	-26014.770000	0.000000	0.000000	0.000000	0.000000	-20.346808	-25.815602	47.556975	47.572222	-0.000000	0.000000	-0.000000	-0.000000	-45.062780	19.960080	-3.158820	-0.069580	0.828001	0.644163	-1.000000	-1.000000	-1.000000	-1.000000	-1.000000	-1.000000	-1.000000	15.034483	0.000000	-1.000000	-1.000000	347277.000000	1772914631.167977
3115.710000	90320.985000	-11857.230000	-26226.090000	0.000000	0.000000	0.000000	0.000000	-42.981265	-12.504671	35.446357	6.873442	-0.000000	0.000000	-0.000000	-0.000000	-45.062780	19.960080	-3.158820	-0.069580	0.828001	0.644163	-1.000000	-1.000000	-1.000000	-1.000000	-1.000000	-1.000000	-1.000000	15.034483	0.000000	-1.000000	-1.000000	347278.000000	1772914631.171990
3248.730000	90344.205000	-11675.835000	-26140.545000	0.000000	0.000000	0.000000	0.000000	-60.293112	5.789428	-27.527981	-55.325710	-0.000000	0.000000	-0.000000	-0.000000	-45.062780	19.960080	-3.158820	-0.069580	0.828001	0.644163	-1.000000	-1.000000	-1.000000	-1.000000	-1.000000	-1.000000	-1.000000	15.034483	0.000000	-1.000000	-1.000000	347279.000000	1772914631.171994
3335.895000	90349.560000	-11509.560000	-26053.155000	0.000000	0.000000	0.000000	0.000000	-51.728948	19.758648	-92.596040	-101.058632	-0.000000	0.000000	-0.000000	-0.000000	-45.062780	19.960080	-3.158820	-0.069580	0.828001	0.644163	-1.000000	-1.000000	-1.000000	-1.000000	-1.000000	-1.000000	-1.000000	15.034483	0.000000	-1.000000	-1.000000	347280.000000	1772914631.175909
3271.995000	90324.135000	-11764.845000	-26099.100000	0.000000	0.000000	0.000000	0.000000	-8.740601	23.311760	-95.516628	-90.417070	-0.000000	0.000000	-0.000000	-0.000000	-45.062780	19.960080	-3.158820	-0.069580	0.828001	0.644163	-1.000000	-1.000000	-1.000000	-1.000000	-1.000000	-1.000000	-1.000000	15.034483	0.000000	-1.000000	-1.000000	347281.000000	1772914631.175912
3286.260000	90299.835000	-11781.000000	-26040.330000	0.000000	0.000000	0.000000	0.000000	41.946286	14.499987	-42.885199	-30.360722	0.000000	0.000000	-0.000000	-0.000000	-45.062780	19.960080	-3.158820	-0.069580	0.828001	0.644163	-1.000000	-1.000000	-1.000000	-1.000000	-1.000000	-1.000000	-1.000000	15.034483	0.000000	-1.000000	-1.000000	347282.000000	1772914631.179954
3491.775000	90295.155000	-11548.305000	-25892.370000	0.000000	0.000000	0.000000	0.000000	70.155890	-2.407375	19.535486	40.973184	0.000000	0.000000	-0.000000	-0.000000	-45.062780	19.960080	-3.158820	-0.069580	0.828001	0.644163	-1.000000	-1.000000	-1.000000	-1.000000	-1.000000	-1.000000	-1.000000	15.034483	0.000000	-1.000000	-1.000000	347283.000000	1772914631.179957
3552.210000	90298.890000	-11464.155000	-25784.820000	0.000000	0.000000	0.000000	0.000000	73.788941	-17.509343	72.869053	93.543964	0.000000	0.000000	-0.000000	-0.000000	-45.062780	19.960080	-3.158820	-0.069580	0.828001	0.644163	-1.000000	-1.000000	-1.000000	-1.000000	-1.000000	-1.000000	-1.000000	15.034483	0.000000	-1.000000	-1.000000	347284.000000	1772914631.183931
3348.585000	90304.740000	-11651.895000	-25974.405000	0.000000	0.000000	0.000000	0.000000	56.879745	-21.896388	106.432643	107.522961	0.000000	0.000000	-0.000000	-0.000000	-45.062780	19.960080	-3.158820	-0.069580	0.828001	0.644163	-1.000000	-1.000000	-1.000000	-1.000000	-1.000000	-1.000000	-1.000000	15.034483	0.000000	-1.000000	-1.000000	347285.000000	1772914631.183933
3010.365000	90314.325000	-11787.030000	-26205.975000	0.000000	0.000000	0.000000	0.000000	6.198883	-14.013327	92.585525	64.681689	0.000000	0.000000	-0.000000	-0.000000	-80.694880	13.154120	1.175020	-0.082886	0.794309	0.605711	-1.000000	-1.000000	-1.000000	-1.000000	-1.000000	-1.000000	-1.000000	15.034483	0.000000	-1.000000	-1.000000	347286.000000	1772914631.189978
3277.755000	90352.845000	-11411.145000	-25958.340000	0.000000	0.000000	0.000000	0.000000	-72.801082	0.981310	31.164217	-22.739007	0.000000	0.000000	-0.000000	-0.000000	-80.694880	13.154120	1.175020	-0.082886	0.794309	0.605711	-1.000000	-1.000000	-1.000000	-1.000000	-1.000000	-1.000000	-1.000000	15.034483	0.000000	-1.000000	-1.000000	347287.000000	1772914631.189981
3401.055000	90357.345000	-11366.280000	-25900.695000	0.000000	0.000000	0.000000	0.000000	-122.448544	15.725348	-25.363329	-93.367022	0.000000	0.000000	-0.000000	-0.000000	-80.694880	13.154120	1.175020	-0.082886	0.794309	0.605711	-1.000000	-1.000000	-1.000000	-1.000000	-1.000000	-1.000000	-1.000000	15.034483	0.000000	-1.000000	-1.000000	347288.000000	1772914631.192858
3339.090000	90329.310000	-11671.425000	-26116.065000	0.000000	0.000000	0.000000	0.000000	-92.631840	22.638148	-42.215385	-99.268422	0.000000	0.000000	-0.000000	-0.000000	-80.694880	13.154120	1.175020	-0.082886	0.794309	0.605711	-1.000000	-1.000000	-1.000000	-1.000000	-1.000000	-1.000000	-1.000000	15.034483	0.000000	-1.000000	-1.000000	347289.000000	1772914631.192860
3320.370000	90299.160000	-11813.805000	-26077.095000	0.000000	0.000000	0.000000	0.000000	-8.945863	16.289749	-48.587716	-59.017866	0.000000	0.000000	-0.000000	-0.000000	-80.694880	13.154120	1.175020	-0.082886	0.794309	0.605711	-1.000000	-1.000000	-1.000000	-1.000000	-1.000000	-1.000000	-1.000000	15.034483	0.000000	-1.000000	-1.000000	347290.000000	1772914631.196098
3233.205000	90271.665000	-11899.530000	-26083.575000	0.000000	0.000000	0.000000	0.000000	61.600523	-1.401530	-74.374376	-13.378248	0.000000	0.000000	-0.000000	-0.000000	-80.694880	13.154120	1.175020	-0.082886	0.794309	0.605711	-1.000000	-1.000000	-1.000000	-1.000000	-1.000000	-1.000000	-1.000000	15.034483	0.000000	-1.000000	-1.000000	347291.000000	1772914631.196101
3175.200000	90267.930000	-11594.835000	-26124.840000	0.000000	0.000000	0.000000	0.000000	78.061828	-20.318607	-93.616792	20.185258	0.000000	0.000000	-0.000000	-0.000000	-80.694880	13.154120	1.175020	-0.082886	0.794309	0.605711	-1.000000	-1.000000	-1.000000	-1.000000	-1.000000	-1.000000	-1.000000	15.034483	0.000000	-1.000000	-1.000000	347292.000000	1772914631.201352
3168.855000	90287.370000	-11410.110000	-25981.740000	0.000000	0.000000	0.000000	0.000000	46.233010	-28.403243	-56.580033	41.033437	0.000000	0.000000	-0.000000	-0.000000	-80.694880	13.154120	1.175020	-0.082886	0.794309	0.605711	-1.000000	-1.000000	-1.000000	-1.000000	-1.000000	-1.000000	-1.000000	15.034483	0.000000	-1.000000	-1.000000	347293.000000	1772914631.201355
3197.430000	90305.460000	-11665.125000	-25934.490000	0.000000	0.000000	0.000000	0.000000	1.665583	-19.809066	34.610344	55.095758	0.000000	0.000000	-0.000000	-0.000000	-80.694880	13.154120	1.175020	-0.082886	0.794309	0.605711	-1.000000	-1.000000	-1.000000	-1.000000	-1.000000	-1.000000	-1.000000	15.034483	0.000000	-1.000000	-1.000000	347294.000000	1772914631.204489
3138.435000	90321.210000	-11844.855000	-26126.865000	0.000000	0.000000	0.000000	0.000000	-23.379120	0.795039	106.102676	59.953848	0.000000	0.000000	-0.000000	-0.000000	-80.694880	13.154120	1.175020	-0.082886	0.794309	0.605711	-1.000000	-1.000000	-1.000000	-1.000000	-1.000000	-1.000000	-1.000000	15.034483	0.000000	-1.000000	-1.000000	347295.000000	1772914631.204491
3196.755000	90326.385000	-11942.055000	-26303.985000	0.000000	0.000000	0.000000	0.000000	-21.293420	21.394199	93.883056	36.802134	0.000000	0.000000	-0.000000	-0.000000	-138.545540	22.081220	6.088740	-0.092712	0.826719	0.627501	-1.000000	-1.000000	-1.000000	-1.000000	-1.000000	-1.000000	-1.000000	15.034483	0.000000	-1.000000	-1.000000	347296.000000	1772914631.207982
3295.800000	90317.970000	-11957.445000	-26189.955000	0.000000	0.000000	0.000000	0.000000	-0.547858	30.622184	15.750891	-16.284638	0.000000	0.000000	-0.000000	-0.000000	-138.545540	22.081220	6.088740	-0.092712	0.826719	0.627501	-1.000000	-1.000000	-1.000000	-1.000000	-1.000000	-1.000000	-1.000000	15.034483	0.000000	-1.000000	-1.000000	347297.000000	1772914631.207984
3397.095000	90293.490000	-11880.540000	-26059.770000	0.000000	0.000000	0.000000	0.000000	28.475694	23.972746	-56.778298	-59.463420	0.000000	0.000000	-0.000000	-0.000000	-138.545540	22.081220	6.088740	-0.092712	0.826719	0.627501	-1.000000	-1.000000	-1.000000	-1.000000	-1.000000	-1.000000	-1.000000	15.034483	0.000000	-1.000000	-1.000000	347298.000000	1772914631.211991
3400.290000	90272.430000	-11784.690000	-25966.170000	0.000000	0.000000	0.000000	0.000000	51.810741	5.297498	-67.843452	-50.829649	0.000000	0.000000	-0.000000	-0.000000	-138.545540	22.081220	6.088740	-0.092712	0.826719	0.627501	-1.000000	-1.000000	-1.000000	-1.000000	-1.000000	-1.000000	-1.000000	15.034483	0.000000	-1.000000	-1.000000	347299.000000	1772914631.211994
3257.730000	90260.280000	-11595.420000	-26039.115000	0.000000	0.000000	0.000000	0.000000	49.410772	-15.582472	-13.278506	1.814601	0.000000	0.000000	-0.000000	-0.000000	-138.545540	22.081220	6.088740	-0.092712	0.826719	0.627501	-1.000000	-1.000000	-1.000000	-1.000000	-1.000000	-1.000000	-1.000000	15.034483	0.000000	-1.000000	-1.000000	347300.000000	1772914631.216047
3051.540000	90263.565000	-11433.555000	-26024.310000	0.000000	0.000000	0.000000	0.000000	6.672363	-27.943531	69.133659	49.949424	0.000000	0.000000	-0.000000	-0.000000	-138.545540	22.081220	6.088740	-0.092712	0.826719	0.627501	-1.000000	-1.000000	-1.000000	-1.000000	-1.000000	-1.000000	-1.000000	15.034483	0.000000	-1.000000	-1.000000	347301.000000	1772914631.216050
2990.790000	90277.245000	-11496.465000	-26104.770000	0.000000	0.000000	0.000000	0.000000	-64.727839	-25.768218	126.011714	55.391227	0.000000	0.000000	-0.000000	-0.000000	-138.545540	22.081220	6.088740	-0.092712	0.826719	0.627501	-1.000000	-1.000000	-1.000000	-1.000000	-1.000000	-1.000000	-1.000000	15.034483	0.000000	-1.000000	-1.000000	347302.000000	1772914631.219903
3126.420000	90299.025000	-11556.810000	-26126.280000	0.000000	0.000000	0.000000	0.000000	-119.216386	-10.655289	113.948565	18.519841	0.000000	0.000000	-0.000000	-0.000000	-138.545540	22.081220	6.088740	-0.092712	0.826719	0.627501	-1.000000	-1.000000	-1.000000	-1.000000	-1.000000	-1.000000	-1.000000	15.034483	0.000000	-1.000000	-1.000000	347303.000000	1772914631.219905
3278.250000	90322.425000	-11368.665000	-26026.245000	0.000000	0.000000	0.000000	0.000000	-106.747058	9.600559	33.663980	-29.927226	0.000000	0.000000	-0.000000	-0.000000	-138.545540	22.081220	6.088740	-0.092712	0.826719	0.627501	-1.000000	-1.000000	-1.000000	-1.000000	-1.000000	-1.000000	-1.000000	15.034483	0.000000	-1.000000	-1.000000	347304.000000	1772914631.223950
3358.305000	90322.110000	-11452.230000	-25914.105000	0.000000	0.000000	0.000000	0.000000	-21.546431	25.079143	-63.961172	-52.007856	0.000000	0.000000	-0.000000	-0.000000	-138.545540	22.081220	6.088740	-0.092712	0.826719	0.627501	-1.000000	-1.000000	-1.000000	-1.000000	-1.000000	-1.000000	-1.000000	15.034483	0.000000	-1.000000	-1.000000	347305.000000	1772914631.223953
3550.905000	90314.415000	-11251.350000	-25804.620000	0.000000	0.000000	0.000000	0.000000	87.962566	28.113004	-123.870809	-31.008047	0.000000	0.000000	-0.000000	-0.000000	-66.731980	-11.673900	51.395680	-0.106750	0.893797	0.757505	-1.000000	-1.000000	-1.000000	-1.000000	-1.000000	-1.000000	-1.000000	15.034483	0.000000	-1.000000	-1.000000	347306.000000	1772914631.227967
3614.265000	90292.185000	-11261.925000	-25783.155000	0.000000	0.000000	0.000000	0.000000	160.246168	17.025858	-123.821680	14.843611	0.000000	0.000000	-0.000000	-0.000000	-66.731980	-11.673900	51.395680	-0.106750	0.893797	0.757505	-1.000000	-1.000000	-1.000000	-1.000000	-1.000000	-1.000000	-1.000000	15.034483	0.000000	-1.000000	-1.000000	347307.000000	1772914631.227970
3486.780000	90255.960000	-11568.510000	-25984.710000	0.000000	0.000000	0.000000	0.000000	156.369917	-3.055712	-83.866225	44.825984	0.000000	0.000000	-0.000000	-0.000000	-66.731980	-11.673900	51.395680	-0.106750	0.893797	0.757505	-1.000000	-1.000000	-1.000000	-1.000000	-1.000000	-1.000000	-1.000000	15.034483	0.000000	-1.000000	-1.000000	347308.000000	1772914631.232014
3402.495000	90253.755000	-11550.420000	-25990.335000	0.000000	0.000000	0.000000	0.000000	71.699670	-22.702670	-48.494963	27.785676	0.000000	0.000000	-0.000000	-0.000000	-66.731980	-11.673900	51.395680	-0.106750	0.893797	0.757505	-1.000000	-1.000000	-1.000000	-1.000000	-1.000000	-1.000000	-1.000000	15.034483	0.000000	-1.000000	-1.000000	347309.000000	1772914631.232017
3496.680000	90275.310000	-11561.265000	-25936.650000	0.000000	0.000000	0.000000	0.000000	-53.488959	-31.582597	-33.956534	-23.877815	0.000000	0.000000	-0.000000	-0.000000	-66.731980	-11.673900	51.395680	-0.106750	0.893797	0.757505	-1.000000	-1.000000	-1.000000	-1.000000	-1.000000	-1.000000	-1.000000	15.034483	0.000000	-1.000000	-1.000000	347310.000000	1772914631.236000
3464.640000	90303.210000	-11578.230000	-25836.480000	0.000000	0.000000	0.000000	0.000000	-149.426564	-23.649985	-17.962558	-62.302578	0.000000	0.000000	-0.000000	-0.000000	-66.731980	-11.673900	51.395680	-0.106750	0.893797	0.757505	-1.000000	-1.000000	-1.000000	-1.000000	-1.000000	-1.000000	-1.000000	15.034483	0.000000	-1.000000	-1.000000	347311.000000	1772914631.236003
3372.930000	90314.280000	-11715.075000	-26116.875000	0.000000	0.000000	0.000000	0.000000	-171.179813	-2.563130	13.520674	-59.260680	0.000000	0.000000	-0.000000	-0.000000	-66.731980	-11.673900	51.395680	-0.106750	0.893797	0.757505	-1.000000	-1.000000	-1.000000	-1.000000	-1.000000	-1.000000	-1.000000	15.034483	0.000000	-1.000000	-1.000000	347312.000000	1772914631.239949
3274.920000	90310.680000	-11765.970000	-26246.745000	0.000000	0.000000	0.000000	0.000000	-128.495295	19.290189	46.819742	-35.935354	0.000000	0.000000	-0.000000	-0.000000	-66.731980	-11.673900	51.395680	-0.106750	0.893797	0.757505	-1.000000	-1.000000	-1.000000	-1.000000	-1.000000	-1.000000	-1.000000	15.034483	0.000000	-1.000000	-1.000000	347313.000000	1772914631.239952
3560.175000	90291.330000	-12165.705000	-26123.220000	0.000000	0.000000	0.000000	0.000000	-53.202514	29.021225	58.226674	-19.482479	0.000000	0.000000	-0.000000	-0.000000	-66.731980	-11.673900	51.395680	-0.106750	0.893797	0.757505	-1.000000	-1.000000	-1.000000	-1.000000	-1.000000	-1.000000	-1.000000	15.034483	0.000000	-1.000000	-1.000000	347314.000000	1772914631.243836
3636.405000	90266.760000	-12255.030000	-26058.195000	0.000000	0.000000	0.000000	0.000000	36.136484	21.676371	34.593542	-0.349102	0.000000	0.000000	-0.000000	-0.000000	-66.731980	-11.673900	51.395680	-0.106750	0.893797	0.757505	-1.000000	-1.000000	-1.000000	-1.000000	-1.000000	-1.000000	-1.000000	15.034483	0.000000	-1.000000	-1.000000	347315.000000	1772914631.243839
3547.305000	90250.875000	-11889.000000	-26042.805000	0.000000	0.000000	0.000000	0.000000	116.287395	2.676392	1.611875	37.573951	0.000000	0.000000	-0.000000	-0.000000	118.631240	-6.104000	62.993280	-0.167175	0.716368	0.891904	-1.000000	-1.000000	-1.000000	-1.000000	-1.000000	-1.000000	-1.000000	15.034483	0.000000	-1.000000	-1.000000	347316.000000	1772914631.248011
3334.005000	90246.465000	-11629.845000	-25996.230000	0.000000	0.000000	0.000000	0.000000	142.973721	-16.271688	16.839036	80.281529	0.000000	0.000000	-0.000000	-0.000000	118.631240	-6.104000	62.993280	-0.167175	0.716368	0.891904	-1.000000	-1.000000	-1.000000	-1.000000	-1.000000	-1.000000	-1.000000	15.034483	0.000000	-1.000000	-1.000000	347317.000000	1772914631.248013
3483.495000	90256.995000	-11659.095000	-25971.885000	0.000000	0.000000	0.000000	0.000000	94.734998	-24.465748	92.557335	99.748641	0.000000	0.000000	-0.000000	-0.000000	118.631240	-6.104000	62.993280	-0.167175	0.716368	0.891904	-1.000000	-1.000000	-1.000000	-1.000000	-1.000000	-1.000000	-1.000000	15.034483	0.000000	-1.000000	-1.000000	347318.000000	1772914631.251955
3590.505000	90287.055000	-11515.365000	-26071.380000	0.000000	0.000000	0.000000	0.000000	12.406537	-17.859387	163.021417	80.174745	0.000000	0.000000	-0.000000	-0.000000	118.631240	-6.104000	62.993280	-0.167175	0.716368	0.891904	-1.000000	-1.000000	-1.000000	-1.000000	-1.000000	-1.000000	-1.000000	15.034483	0.000000	-1.000000	-1.000000	347319.000000	1772914631.251957
3431.250000	90308.880000	-11502.315000	-25979.490000	0.000000	0.000000	0.000000	0.000000	-44.629887	-0.422496	158.771269	27.138212	0.000000	0.000000	-0.000000	-0.000000	118.631240	-6.104000	62.993280	-0.167175	0.716368	0.891904	-1.000000	-1.000000	-1.000000	-1.000000	-1.000000	-1.000000	-1.000000	15.034483	0.000000	-1.000000	-1.000000	347320.000000	1772914631.256056
3242.070000	90310.005000	-11751.120000	-26114.805000	0.000000	0.000000	0.000000	0.000000	-64.644402	17.903357	66.584477	-34.680011	0.000000	0.000000	-0.000000	-0.000000	118.631240	-6.104000	62.993280	-0.167175	0.716368	0.891904	-1.000000	-1.000000	-1.000000	-1.000000	-1.000000	-1.000000	-1.000000	15.034483	0.000000	-1.000000	-1.000000	347321.000000	1772914631.256059
3232.935000	90296.460000	-11877.210000	-26096.940000	0.000000	0.000000	0.000000	0.000000	-70.066269	26.216143	-79.638736	-79.429101	0.000000	0.000000	-0.000000	-0.000000	118.631240	-6.104000	62.993280	-0.167175	0.716368	0.891904	-1.000000	-1.000000	-1.000000	-1.000000	-1.000000	-1.000000	-1.000000	15.034483	0.000000	-1.000000	-1.000000	347322.000000	1772914631.260059
3215.430000	90269.055000	-11874.600000	-26120.925000	0.000000	0.000000	0.000000	0.000000	-66.148554	19.186967	-214.453592	-93.209121	0.000000	0.000000	-0.000000	-0.000000	118.631240	-6.104000	62.993280	-0.167175	0.716368	0.891904	-1.000000	-1.000000	-1.000000	-1.000000	-1.000000	-1.000000	-1.000000	15.034483	0.000000	-1.000000	-1.000000	347323.000000	1772914631.260061
3266.325000	90249.300000	-11688.030000	-26162.370000	0.000000	0.000000	0.000000	0.000000	-39.926105	0.526995	-262.744836	-74.536738	0.000000	0.000000	-0.000000	-0.000000	118.631240	-6.104000	62.993280	-0.167175	0.716368	0.891904	-1.000000	-1.000000	-1.000000	-1.000000	-1.000000	-1.000000	-1.000000	15.034483	0.000000	-1.000000	-1.000000	347324.000000	1772914631.264052
3225.960000	90232.245000	-11751.345000	-26141.220000	0.000000	0.000000	0.000000	0.000000	9.095223	-19.350434	-191.964015	-34.657321	0.000000	0.000000	-0.000000	-0.000000	118.631240	-6.104000	62.993280	-0.167175	0.716368	0.891904	-1.000000	-1.000000	-1.000000	-1.000000	-1.000000	-1.000000	-1.000000	15.034483	0.000000	-1.000000	-1.000000	347325.000000	1772914631.264055
3257.460000	90238.635000	-11687.895000	-26082.225000	0.000000	0.000000	0.000000	0.000000	59.880906	-29.563417	-45.243742	10.821332	0.000000	0.000000	-0.000000	-0.000000	56.324660	-8.881320	90.568100	-0.197265	0.648436	0.909605	-1.000000	-1.000000	-1.000000	-1.000000	-1.000000	-1.000000	-1.000000	15.034483	0.000000	-1.000000	-1.000000	347326.000000	1772914631.267973
3292.830000	90260.145000	-11687.130000	-26110.890000	0.000000	0.000000	0.000000	0.000000	88.490434	-24.490257	94.847629	48.923806	0.000000	0.000000	-0.000000	-0.000000	56.324660	-8.881320	90.568100	-0.197265	0.648436	0.909605	-1.000000	-1.000000	-1.000000	-1.000000	-1.000000	-1.000000	-1.000000	15.034483	0.000000	-1.000000	-1.000000	347327.000000	1772914631.267975
3302.055000	90276.705000	-12104.775000	-26100.990000	0.000000	0.000000	0.000000	0.000000	85.793808	-6.476199	160.425762	67.304065	0.000000	0.000000	-0.000000	-0.000000	56.324660	-8.881320	90.568100	-0.197265	0.648436	0.909605	-1.000000	-1.000000	-1.000000	-1.000000	-1.000000	-1.000000	-1.000000	15.034483	0.000000	-1.000000	-1.000000	347328.000000	1772914631.272032
3492.360000	90306.270000	-11951.685000	-25978.590000	0.000000	0.000000	0.000000	0.000000	59.965858	15.437563	128.705830	61.845230	0.000000	0.000000	-0.000000	-0.000000	56.324660	-8.881320	90.568100	-0.197265	0.648436	0.909605	-1.000000	-1.000000	-1.000000	-1.000000	-1.000000	-1.000000	-1.000000	15.034483	0.000000	-1.000000	-1.000000	347329.000000	1772914631.272034
3406.860000	90306.225000	-11709.945000	-26068.275000	0.000000	0.000000	0.000000	0.000000	26.912321	30.521118	47.880789	40.843940	0.000000	0.000000	-0.000000	-0.000000	56.324660	-8.881320	90.568100	-0.197265	0.648436	0.909605	-1.000000	-1.000000	-1.000000	-1.000000	-1.000000	-1.000000	-1.000000	15.034483	0.000000	-1.000000	-1.000000	347330.000000	1772914631.275965
3267.045000	90288.135000	-11517.435000	-26125.650000	0.000000	0.000000	0.000000	0.000000	-9.631508	31.273367	1.991041	10.495758	0.000000	0.000000	-0.000000	-0.000000	56.324660	-8.881320	90.568100	-0.197265	0.648436	0.909605	-1.000000	-1.000000	-1.000000	-1.000000	-1.000000	-1.000000	-1.000000	15.034483	0.000000	-1.000000	-1.000000	347331.000000	1772914631.275968
3251.475000	90261.405000	-11587.995000	-26063.415000	0.000000	0.000000	0.000000	0.000000	-54.710546	16.562884	18.918746	-24.854796	0.000000	0.000000	-0.000000	-0.000000	56.324660	-8.881320	90.568100	-0.197265	0.648436	0.909605	-1.000000	-1.000000	-1.000000	-1.000000	-1.000000	-1.000000	-1.000000	15.034483	0.000000	-1.000000	-1.000000	347332.000000	1772914631.279924
3329.730000	90236.430000	-11908.170000	-26089.920000	0.000000	0.000000	0.000000	0.000000	-93.530286	-7.021934	44.590794	-50.500093	0.000000	0.000000	-0.000000	-0.000000	56.324660	-8.881320	90.568100	-0.197265	0.648436	0.909605	-1.000000	-1.000000	-1.000000	-1.000000	-1.000000	-1.000000	-1.000000	15.034483	0.000000	-1.000000	-1.000000	347333.000000	1772914631.279926
3367.710000	90231.615000	-12050.370000	-26242.695000	0.000000	0.000000	0.000000	0.000000	-96.344983	-27.807592	13.590148	-56.136374	0.000000	0.000000	-0.000000	-0.000000	56.324660	-8.881320	90.568100	-0.197265	0.648436	0.909605	-1.000000	-1.000000	-1.000000	-1.000000	-1.000000	-1.000000	-1.000000	15.034483	0.000000	-1.000000	-1.000000	347334.000000	1772914631.283986
3360.960000	90243.585000	-12312.450000	-26153.280000	0.000000	0.000000	0.000000	0.000000	-55.330434	-35.035603	-74.907948	-47.027226	0.000000	0.000000	-0.000000	-0.000000	56.324660	-8.881320	90.568100	-0.197265	0.648436	0.909605	-1.000000	-1.000000	-1.000000	-1.000000	-1.000000	-1.000000	-1.000000	15.034483	0.000000	-1.000000	-1.000000	347335.000000	1772914631.283989
3471.795000	90276.030000	-12163.815000	-26063.460000	0.000000	0.000000	0.000000	0.000000	6.065081	-24.596521	-156.091258	-25.178491	0.000000	0.000000	-0.000000	-0.000000	106.346940	1.541260	111.657420	-0.158264	0.778318	0.687742	-1.000000	-1.000000	-1.000000	-1.000000	-1.000000	-1.000000	-1.000000	15.034483	0.000000	-1.000000	-1.000000	347336.000000	1772914631.288047
3550.905000	90313.875000	-11625.255000	-25939.440000	0.000000	0.000000	0.000000	0.000000	58.743738	-1.198251	-148.635524	13.566203	0.000000	0.000000	-0.000000	-0.000000	106.346940	1.541260	111.657420	-0.158264	0.778318	0.687742	-1.000000	-1.000000	-1.000000	-1.000000	-1.000000	-1.000000	-1.000000	15.034483	0.000000	-1.000000	-1.000000	347337.000000	1772914631.288050
3430.530000	90321.705000	-11153.745000	-25786.575000	0.000000	0.000000	0.000000	0.000000	82.181197	23.621327	-14.112007	61.270954	0.000000	0.000000	-0.000000	-0.000000	106.346940	1.541260	111.657420	-0.158264	0.778318	0.687742	-1.000000	-1.000000	-1.000000	-1.000000	-1.000000	-1.000000	-1.000000	15.034483	0.000000	-1.000000	-1.000000	347338.000000	1772914631.292323
3624.255000	90305.370000	-11345.130000	-25873.065000	0.000000	0.000000	0.000000	0.000000	67.522146	36.496514	182.242403	93.343347	0.000000	0.000000	-0.000000	-0.000000	106.346940	1.541260	111.657420	-0.158264	0.778318	0.687742	-1.000000	-1.000000	-1.000000	-1.000000	-1.000000	-1.000000	-1.000000	15.034483	0.000000	-1.000000	-1.000000	347339.000000	1772914631.292326
3489.795000	90272.835000	-11534.220000	-26049.375000	0.000000	0.000000	0.000000	0.000000	26.711029	29.505102	290.320461	79.120746	0.000000	0.000000	-0.000000	-0.000000	106.346940	1.541260	111.657420	-0.158264	0.778318	0.687742	-1.000000	-1.000000	-1.000000	-1.000000	-1.000000	-1.000000	-1.000000	15.034483	0.000000	-1.000000	-1.000000	347340.000000	1772914631.299768
3277.710000	90239.535000	-11776.275000	-26322.705000	0.000000	0.000000	0.000000	0.000000	-23.329268	5.707299	207.705569	5.485061	0.000000	0.000000	-0.000000	-0.000000	106.346940	1.541260	111.657420	-0.158264	0.778318	0.687742	-1.000000	-1.000000	-1.000000	-1.000000	-1.000000	-1.000000	-1.000000	15.034483	0.000000	-1.000000	-1.000000	347341.000000	1772914631.299771
3228.570000	90228.330000	-11955.060000	-26330.895000	0.000000	0.000000	0.000000	0.000000	-74.254969	-21.978613	-21.918514	-97.817399	0.000000	0.000000	-0.000000	-0.000000	106.346940	1.541260	111.657420	-0.158264	0.778318	0.687742	-1.000000	-1.000000	-1.000000	-1.000000	-1.000000	-1.000000	-1.000000	15.034483	0.000000	-1.000000	-1.000000	347342.000000	1772914631.299775
3279.600000	90245.205000	-11851.515000	-26111.340000	0.000000	0.000000	0.000000	0.000000	-105.672468	-37.947266	-250.317072	-161.436862	0.000000	0.000000	-0.000000	-0.000000	106.346940	1.541260	111.657420	-0.158264	0.778318	0.687742	-1.000000	-1.000000	-1.000000	-1.000000	-1.000000	-1.000000	-1.000000	15.034483	0.000000	-1.000000	-1.000000	347343.000000	1772914631.299778
3550.410000	90284.760000	-11500.515000	-25893.630000	0.000000	0.000000	0.000000	0.000000	-84.750368	-32.699038	-332.299631	-124.826735	0.000000	0.000000	-0.000000	-0.000000	106.346940	1.541260	111.657420	-0.158264	0.778318	0.687742	-1.000000	-1.000000	-1.000000	-1.000000	-1.000000	-1.000000	-1.000000	15.034483	0.000000	-1.000000	-1.000000	347344.000000	1772914631.306687
3798.450000	90330.345000	-11093.895000	-25625.970000	0.000000	0.000000	0.000000	0.000000	0.318042	-8.372994	-214.028832	6.047315	0.000000	0.000000	-0.000000	-0.000000	106.346940	1.541260	111.657420	-0.158264	0.778318	0.687742	-1.000000	-1.000000	-1.000000	-1.000000	-1.000000	-1.000000	-1.000000	15.034483	0.000000	-1.000000	-1.000000	347345.000000	1772914631.306691
3621.420000	90329.625000	-11372.490000	-25711.470000	0.000000	0.000000	0.000000	0.000000	109.322169	21.661325	24.672342	152.560464	0.000000	0.000000	-0.000000	-0.000000	-8.133580	-1.632820	35.494760	-0.038513	0.724546	0.604735	-1.000000	-1.000000	-1.000000	-1.000000	-1.000000	-1.000000	-1.000000	15.034483	0.000000	-1.000000	-1.000000	347346.000000	1772914631.309613
3113.370000	90278.055000	-12083.580000	-26419.410000	0.000000	0.000000	0.000000	0.000000	155.187644	38.920272	204.322537	204.649594	0.000000	0.000000	-0.000000	-0.000000	-8.133580	-1.632820	35.494760	-0.038513	0.724546	0.604735	-1.000000	-1.000000	-1.000000	-1.000000	-1.000000	-1.000000	-1.000000	15.034483	0.000000	-1.000000	-1.000000	347347.000000	1772914631.309617
2941.920000	90236.565000	-12139.155000	-26601.930000	0.000000	0.000000	0.000000	0.000000	77.454051	31.164764	188.520968	97.789805	0.000000	0.000000	-0.000000	-0.000000	-8.133580	-1.632820	35.494760	-0.038513	0.724546	0.604735	-1.000000	-1.000000	-1.000000	-1.000000	-1.000000	-1.000000	-1.000000	15.034483	0.000000	-1.000000	-1.000000	347348.000000	1772914631.311926
3251.430000	90226.305000	-11994.030000	-26257.815000	0.000000	0.000000	0.000000	0.000000	-71.216761	3.095184	24.495887	-97.857509	0.000000	0.000000	-0.000000	-0.000000	-8.133580	-1.632820	35.494760	-0.038513	0.724546	0.604735	-1.000000	-1.000000	-1.000000	-1.000000	-1.000000	-1.000000	-1.000000	15.034483	0.000000	-1.000000	-1.000000	347349.000000	1772914631.311929
3530.880000	90231.885000	-11688.120000	-26032.320000	0.000000	0.000000	0.000000	0.000000	-155.206408	-25.781404	-110.454243	-213.092900	0.000000	0.000000	-0.000000	-0.000000	-8.133580	-1.632820	35.494760	-0.038513	0.724546	0.604735	-1.000000	-1.000000	-1.000000	-1.000000	-1.000000	-1.000000	-1.000000	15.034483	0.000000	-1.000000	-1.000000	347350.000000	1772914631.315966
3397.050000	90238.680000	-11612.835000	-26088.435000	0.000000	0.000000	0.000000	0.000000	-100.858302	-36.739460	-97.276029	-154.404201	0.000000	0.000000	-0.000000	-0.000000	-8.133580	-1.632820	35.494760	-0.038513	0.724546	0.604735	-1.000000	-1.000000	-1.000000	-1.000000	-1.000000	-1.000000	-1.000000	15.034483	0.000000	-1.000000	-1.000000	347351.000000	1772914631.315969
3594.645000	90276.660000	-11385.270000	-25823.205000	0.000000	0.000000	0.000000	0.000000	31.989044	-24.770092	33.724947	13.973280	0.000000	0.000000	-0.000000	-0.000000	-8.133580	-1.632820	35.494760	-0.038513	0.724546	0.604735	-1.000000	-1.000000	-1.000000	-1.000000	-1.000000	-1.000000	-1.000000	15.034483	0.000000	-1.000000	-1.000000	347352.000000	1772914631.319979
3791.565000	90312.615000	-11262.105000	-25847.010000	0.000000	0.000000	0.000000	0.000000	140.048464	1.678501	169.510525	165.391722	0.000000	0.000000	-0.000000	-0.000000	-8.133580	-1.632820	35.494760	-0.038513	0.724546	0.604735	-1.000000	-1.000000	-1.000000	-1.000000	-1.000000	-1.000000	-1.000000	15.034483	0.000000	-1.000000	-1.000000	347353.000000	1772914631.319982
3515.040000	90305.370000	-11761.875000	-26009.730000	0.000000	0.000000	0.000000	0.000000	165.527342	27.467144	207.452262	211.332396	0.000000	0.000000	-0.000000	-0.000000	-8.133580	-1.632820	35.494760	-0.038513	0.724546	0.604735	-1.000000	-1.000000	-1.000000	-1.000000	-1.000000	-1.000000	-1.000000	15.034483	0.000000	-1.000000	-1.000000	347354.000000	1772914631.324037
3546.630000	90302.895000	-11787.075000	-25802.280000	0.000000	0.000000	0.000000	0.000000	97.460102	38.098974	105.487584	137.087501	0.000000	0.000000	-0.000000	-0.000000	-8.133580	-1.632820	35.494760	-0.038513	0.724546	0.604735	-1.000000	-1.000000	-1.000000	-1.000000	-1.000000	-1.000000	-1.000000	15.034483	0.000000	-1.000000	-1.000000	347355.000000	1772914631.324040
3416.940000	90287.370000	-11439.045000	-26029.035000	0.000000	0.000000	0.000000	0.000000	-28.915501	28.036192	-73.109207	0.724922	0.000000	0.000000	-0.000000	-0.000000	-10.361540	11.216100	19.425980	0.033203	0.627013	0.597655	-1.000000	-1.000000	-1.000000	-1.000000	-1.000000	-1.000000	-1.000000	15.034483	0.000000	-1.000000	-1.000000	347356.000000	1772914631.328057
3311.325000	90270.990000	-11110.140000	-25884.810000	0.000000	0.000000	0.000000	0.000000	-145.191998	3.901271	-188.690977	-118.856602	0.000000	0.000000	-0.000000	-0.000000	-10.361540	11.216100	19.425980	0.033203	0.627013	0.597655	-1.000000	-1.000000	-1.000000	-1.000000	-1.000000	-1.000000	-1.000000	15.034483	0.000000	-1.000000	-1.000000	347357.000000	1772914631.328060
3218.445000	90238.050000	-11429.685000	-26045.460000	0.000000	0.000000	0.000000	0.000000	-197.451853	-21.447276	-166.812399	-173.025933	0.000000	0.000000	-0.000000	-0.000000	-10.361540	11.216100	19.425980	0.033203	0.627013	0.597655	-1.000000	-1.000000	-1.000000	-1.000000	-1.000000	-1.000000	-1.000000	15.034483	0.000000	-1.000000	-1.000000	347358.000000	1772914631.331978
3006.855000	90221.985000	-11670.165000	-26327.565000	0.000000	0.000000	0.000000	0.000000	-173.525074	-36.981133	-74.389877	-160.660537	0.000000	0.000000	-0.000000	-0.000000	-10.361540	11.216100	19.425980	0.033203	0.627013	0.597655	-1.000000	-1.000000	-1.000000	-1.000000	-1.000000	-1.000000	-1.000000	15.034483	0.000000	-1.000000	-1.000000	347359.000000	1772914631.331981
3010.590000	90236.025000	-11714.670000	-26361.180000	0.000000	0.000000	0.000000	0.000000	-95.982504	-36.936240	-17.402094	-114.795422	0.000000	0.000000	-0.000000	-0.000000	-10.361540	11.216100	19.425980	0.033203	0.627013	0.597655	-1.000000	-1.000000	-1.000000	-1.000000	-1.000000	-1.000000	-1.000000	15.034483	0.000000	-1.000000	-1.000000	347360.000000	1772914631.336115
3226.995000	90269.640000	-11641.725000	-26216.505000	0.000000	0.000000	0.000000	0.000000	7.464956	-20.915618	-16.679094	-54.442746	0.000000	0.000000	-0.000000	-0.000000	-10.361540	11.216100	19.425980	0.033203	0.627013	0.597655	-1.000000	-1.000000	-1.000000	-1.000000	-1.000000	-1.000000	-1.000000	15.034483	0.000000	-1.000000	-1.000000	347361.000000	1772914631.336118
3369.780000	90300.420000	-11411.100000	-26014.725000	0.000000	0.000000	0.000000	0.000000	118.753677	5.441157	-17.295294	28.838717	0.000000	0.000000	-0.000000	-0.000000	-10.361540	11.216100	19.425980	0.033203	0.627013	0.597655	-1.000000	-1.000000	-1.000000	-1.000000	-1.000000	-1.000000	-1.000000	15.034483	0.000000	-1.000000	-1.000000	347362.000000	1772914631.339990
3378.735000	90305.595000	-11324.475000	-26007.480000	0.000000	0.000000	0.000000	0.000000	208.080626	30.631207	25.893012	127.532442	0.000000	0.000000	-0.000000	-0.000000	-10.361540	11.216100	19.425980	0.033203	0.627013	0.597655	-1.000000	-1.000000	-1.000000	-1.000000	-1.000000	-1.000000	-1.000000	15.034483	0.000000	-1.000000	-1.000000	347363.000000	1772914631.339994
3369.600000	90286.020000	-11380.230000	-26090.415000	0.000000	0.000000	0.000000	0.000000	230.596417	41.758726	95.643252	194.636358	-0.000000	0.000000	-0.000000	-0.000000	-10.361540	11.216100	19.425980	0.033203	0.627013	0.597655	-1.000000	-1.000000	-1.000000	-1.000000	-1.000000	-1.000000	-1.000000	15.034483	0.000000	-1.000000	-1.000000	347364.000000	1772914631.343969
3307.140000	90261.585000	-11382.705000	-26122.545000	0.000000	0.000000	0.000000	0.000000	163.744671	32.243233	133.766355	181.485330	-0.000000	0.000000	-0.000000	-0.000000	-10.361540	11.216100	19.425980	0.033203	0.627013	0.597655	-1.000000	-1.000000	-1.000000	-1.000000	-1.000000	-1.000000	-1.000000	15.034483	0.000000	-1.000000	-1.000000	347365.000000	1772914631.343972
3169.080000	90227.070000	-11684.880000	-26355.465000	0.000000	0.000000	0.000000	0.000000	31.571117	6.719075	100.061340	85.705240	-0.000000	0.000000	-0.000000	-0.000000	26.872860	30.077460	13.032040	0.028381	0.601805	0.602171	-1.000000	-1.000000	-1.000000	-1.000000	-1.000000	-1.000000	-1.000000	15.034483	0.000000	-1.000000	-1.000000	347366.000000	1772914631.348011
3382.290000	90227.115000	-11621.475000	-26196.705000	0.000000	0.000000	0.000000	0.000000	-104.993154	-21.286695	5.255959	-43.785946	-0.000000	0.000000	-0.000000	-0.000000	26.872860	30.077460	13.032040	0.028381	0.601805	0.602171	-1.000000	-1.000000	-1.000000	-1.000000	-1.000000	-1.000000	-1.000000	15.034483	0.000000	-1.000000	-1.000000	347367.000000	1772914631.348013
3516.885000	90239.715000	-11478.780000	-26115.705000	0.000000	0.000000	0.000000	0.000000	-175.895311	-36.788306	-89.915425	-133.751413	-0.000000	0.000000	-0.000000	-0.000000	26.872860	30.077460	13.032040	0.028381	0.601805	0.602171	-1.000000	-1.000000	-1.000000	-1.000000	-1.000000	-1.000000	-1.000000	15.034483	0.000000	-1.000000	-1.000000	347368.000000	1772914631.352000
3251.205000	90255.825000	-11469.960000	-26229.195000	0.000000	0.000000	0.000000	0.000000	-155.846387	-32.003473	-118.784136	-139.729457	-0.000000	0.000000	-0.000000	-0.000000	26.872860	30.077460	13.032040	0.028381	0.601805	0.602171	-1.000000	-1.000000	-1.000000	-1.000000	-1.000000	-1.000000	-1.000000	15.034483	0.000000	-1.000000	-1.000000	347369.000000	1772914631.352002
3261.690000	90282.420000	-11412.270000	-26179.245000	0.000000	0.000000	0.000000	0.000000	-89.609269	-10.918343	-70.656890	-82.074991	-0.000000	0.000000	-0.000000	-0.000000	26.872860	30.077460	13.032040	0.028381	0.601805	0.602171	-1.000000	-1.000000	-1.000000	-1.000000	-1.000000	-1.000000	-1.000000	15.034483	0.000000	-1.000000	-1.000000	347370.000000	1772914631.356257
3460.320000	90305.055000	-11273.895000	-26015.805000	0.000000	0.000000	0.000000	0.000000	-28.417308	14.391064	11.165171	-8.210324	-0.000000	0.000000	-0.000000	-0.000000	26.872860	30.077460	13.032040	0.028381	0.601805	0.602171	-1.000000	-1.000000	-1.000000	-1.000000	-1.000000	-1.000000	-1.000000	15.034483	0.000000	-1.000000	-1.000000	347371.000000	1772914631.356260
3358.305000	90288.360000	-11426.400000	-26130.150000	0.000000	0.000000	0.000000	0.000000	18.612703	30.917943	74.414682	50.215063	-0.000000	0.000000	-0.000000	-0.000000	26.872860	30.077460	13.032040	0.028381	0.601805	0.602171	-1.000000	-1.000000	-1.000000	-1.000000	-1.000000	-1.000000	-1.000000	15.034483	0.000000	-1.000000	-1.000000	347372.000000	1772914631.360813
3329.955000	90252.405000	-11903.040000	-26161.695000	0.000000	0.000000	0.000000	0.000000	50.469797	30.004925	75.308735	72.032515	-0.000000	0.000000	-0.000000	-0.000000	26.872860	30.077460	13.032040	0.028381	0.601805	0.602171	-1.000000	-1.000000	-1.000000	-1.000000	-1.000000	-1.000000	-1.000000	15.034483	0.000000	-1.000000	-1.000000	347373.000000	1772914631.360815
3349.935000	90238.950000	-11714.940000	-25899.300000	0.000000	0.000000	0.000000	0.000000	57.048424	11.992669	4.155240	54.684178	-0.000000	0.000000	-0.000000	-0.000000	26.872860	30.077460	13.032040	0.028381	0.601805	0.602171	-1.000000	-1.000000	-1.000000	-1.000000	-1.000000	-1.000000	-1.000000	15.034483	0.000000	-1.000000	-1.000000	347374.000000	1772914631.365429
3203.010000	90240.705000	-10904.220000	-25792.875000	0.000000	0.000000	0.000000	0.000000	38.877250	-12.093882	-65.730433	27.836152	-0.000000	0.000000	-0.000000	-0.000000	26.872860	30.077460	13.032040	0.028381	0.601805	0.602171	-1.000000	-1.000000	-1.000000	-1.000000	-1.000000	-1.000000	-1.000000	15.034483	0.000000	-1.000000	-1.000000	347375.000000	1772914631.365432
3157.785000	90251.010000	-10741.095000	-25741.575000	0.000000	0.000000	0.000000	0.000000	6.532806	-27.355387	-32.432679	17.293429	-0.000000	0.000000	-0.000000	-0.000000	90.369720	34.869100	-2.121140	-0.033142	0.595152	0.614195	-1.000000	-1.000000	-1.000000	-1.000000	-1.000000	-1.000000	-1.000000	14.965517	0.000000	-1.000000	-1.000000	347376.000000	1772914631.368119
3214.350000	90266.445000	-11171.790000	-26121.285000	0.000000	0.000000	0.000000	0.000000	-23.197785	-25.677304	83.392444	7.288753	-0.000000	0.000000	-0.000000	-0.000000	90.369720	34.869100	-2.121140	-0.033142	0.595152	0.614195	-1.000000	-1.000000	-1.000000	-1.000000	-1.000000	-1.000000	-1.000000	14.965517	0.000000	-1.000000	-1.000000	347377.000000	1772914631.368122
3217.320000	90287.685000	-11306.115000	-26365.230000	0.000000	0.000000	0.000000	0.000000	-29.866643	-9.959722	139.792915	-38.164506	-0.000000	0.000000	-0.000000	-0.000000	90.369720	34.869100	-2.121140	-0.033142	0.595152	0.614195	-1.000000	-1.000000	-1.000000	-1.000000	-1.000000	-1.000000	-1.000000	14.965517	0.000000	-1.000000	-1.000000	347378.000000	1772914631.372151
3263.760000	90304.740000	-11250.945000	-26226.315000	0.000000	0.000000	0.000000	0.000000	-7.749089	9.836390	58.651736	-112.429809	-0.000000	0.000000	-0.000000	-0.000000	90.369720	34.869100	-2.121140	-0.033142	0.595152	0.614195	-1.000000	-1.000000	-1.000000	-1.000000	-1.000000	-1.000000	-1.000000	14.965517	0.000000	-1.000000	-1.000000	347379.000000	1772914631.372155
3330.270000	90293.085000	-11553.750000	-26258.715000	0.000000	0.000000	0.000000	0.000000	28.128258	22.952105	-93.713600	-151.115542	-0.000000	0.000000	-0.000000	-0.000000	90.369720	34.869100	-2.121140	-0.033142	0.595152	0.614195	-1.000000	-1.000000	-1.000000	-1.000000	-1.000000	-1.000000	-1.000000	14.965517	0.000000	-1.000000	-1.000000	347380.000000	1772914631.375968
3245.085000	90267.435000	-11638.665000	-26356.140000	0.000000	0.000000	0.000000	0.000000	54.438470	22.449224	-209.783115	-108.068285	-0.000000	0.000000	-0.000000	-0.000000	90.369720	34.869100	-2.121140	-0.033142	0.595152	0.614195	-1.000000	-1.000000	-1.000000	-1.000000	-1.000000	-1.000000	-1.000000	14.965517	0.000000	-1.000000	-1.000000	347381.000000	1772914631.375971
3197.070000	90259.155000	-11090.160000	-26009.730000	0.000000	0.000000	0.000000	0.000000	51.171582	8.785281	-218.360014	-2.564700	-0.000000	0.000000	-0.000000	-0.000000	90.369720	34.869100	-2.121140	-0.033142	0.595152	0.614195	-1.000000	-1.000000	-1.000000	-1.000000	-1.000000	-1.000000	-1.000000	14.965517	0.000000	-1.000000	-1.000000	347382.000000	1772914631.380002
3192.705000	90240.210000	-11079.135000	-26138.250000	0.000000	0.000000	0.000000	0.000000	16.464432	-9.752552	-97.186885	114.736691	-0.000000	0.000000	-0.000000	-0.000000	90.369720	34.869100	-2.121140	-0.033142	0.595152	0.614195	-1.000000	-1.000000	-1.000000	-1.000000	-1.000000	-1.000000	-1.000000	14.965517	0.000000	-1.000000	-1.000000	347383.000000	1772914631.380005
3304.080000	90246.375000	-10926.270000	-26144.145000	0.000000	0.000000	0.000000	0.000000	-25.462531	-22.464513	94.073069	186.951812	-0.000000	0.000000	-0.000000	-0.000000	90.369720	34.869100	-2.121140	-0.033142	0.595152	0.614195	-1.000000	-1.000000	-1.000000	-1.000000	-1.000000	-1.000000	-1.000000	14.965517	0.000000	-1.000000	-1.000000	347384.000000	1772914631.384062
3260.970000	90263.430000	-10984.095000	-26102.160000	0.000000	0.000000	0.000000	0.000000	-44.938895	-22.590339	237.193138	175.507818	-0.000000	0.000000	-0.000000	-0.000000	90.369720	34.869100	-2.121140	-0.033142	0.595152	0.614195	-1.000000	-1.000000	-1.000000	-1.000000	-1.000000	-1.000000	-1.000000	14.965517	0.000000	-1.000000	-1.000000	347385.000000	1772914631.384065
3228.030000	90282.690000	-11148.570000	-26141.445000	0.000000	0.000000	0.000000	0.000000	-36.834433	-10.246018	247.261905	93.445855	-0.000000	0.000000	-0.000000	-0.000000	120.248800	40.530560	13.260940	-0.043579	0.624144	0.643553	-1.000000	-1.000000	-1.000000	-1.000000	-1.000000	-1.000000	-1.000000	14.965517	0.000000	-1.000000	-1.000000	347386.000000	1772914631.388063
3206.430000	90297.180000	-11226.645000	-26274.195000	0.000000	0.000000	0.000000	0.000000	-19.116049	7.796371	125.111535	-13.164031	-0.000000	0.000000	-0.000000	-0.000000	120.248800	40.530560	13.260940	-0.043579	0.624144	0.643553	-1.000000	-1.000000	-1.000000	-1.000000	-1.000000	-1.000000	-1.000000	14.965517	0.000000	-1.000000	-1.000000	347387.000000	1772914631.388065
3229.560000	90304.875000	-11113.065000	-26186.265000	0.000000	0.000000	0.000000	0.000000	-6.486617	21.891768	-49.077184	-100.467084	-0.000000	0.000000	-0.000000	-0.000000	120.248800	40.530560	13.260940	-0.043579	0.624144	0.643553	-1.000000	-1.000000	-1.000000	-1.000000	-1.000000	-1.000000	-1.000000	14.965517	0.000000	-1.000000	-1.000000	347388.000000	1772914631.392141
3280.725000	90290.520000	-11140.830000	-26172.135000	0.000000	0.000000	0.000000	0.000000	1.567203	24.809231	-170.825999	-135.730886	-0.000000	0.000000	-0.000000	-0.000000	120.248800	40.530560	13.260940	-0.043579	0.624144	0.643553	-1.000000	-1.000000	-1.000000	-1.000000	-1.000000	-1.000000	-1.000000	14.965517	0.000000	-1.000000	-1.000000	347389.000000	1772914631.392143
3362.085000	90267.480000	-11078.640000	-26102.250000	0.000000	0.000000	0.000000	0.000000	12.132165	14.945392	-185.923252	-108.680247	-0.000000	0.000000	-0.000000	-0.000000	120.248800	40.530560	13.260940	-0.043579	0.624144	0.643553	-1.000000	-1.000000	-1.000000	-1.000000	-1.000000	-1.000000	-1.000000	14.965517	0.000000	-1.000000	-1.000000	347390.000000	1772914631.398340
3398.985000	90252.810000	-10915.470000	-25924.095000	0.000000	0.000000	0.000000	0.000000	26.681754	-2.950739	-110.376606	-38.228698	-0.000000	0.000000	-0.000000	-0.000000	120.248800	40.530560	13.260940	-0.043579	0.624144	0.643553	-1.000000	-1.000000	-1.000000	-1.000000	-1.000000	-1.000000	-1.000000	14.965517	0.000000	-1.000000	-1.000000	347391.000000	1772914631.398343
3367.665000	90243.810000	-10945.035000	-26118.585000	0.000000	0.000000	0.000000	0.000000	35.845516	-19.696224	1.804884	37.112223	-0.000000	0.000000	-0.000000	-0.000000	120.248800	40.530560	13.260940	-0.043579	0.624144	0.643553	-1.000000	-1.000000	-1.000000	-1.000000	-1.000000	-1.000000	-1.000000	14.965517	0.000000	-1.000000	-1.000000	347392.000000	1772914631.401501
3263.805000	90251.595000	-11030.580000	-26258.355000	0.000000	0.000000	0.000000	0.000000	25.478207	-26.545155	87.670421	70.986915	-0.000000	0.000000	-0.000000	-0.000000	120.248800	40.530560	13.260940	-0.043579	0.624144	0.643553	-1.000000	-1.000000	-1.000000	-1.000000	-1.000000	-1.000000	-1.000000	14.965517	0.000000	-1.000000	-1.000000	347393.000000	1772914631.401504
3334.635000	90286.470000	-10870.605000	-25917.255000	0.000000	0.000000	0.000000	0.000000	-6.209844	-19.683800	108.171071	48.558257	-0.000000	0.000000	-0.000000	-0.000000	120.248800	40.530560	13.260940	-0.043579	0.624144	0.643553	-1.000000	-1.000000	-1.000000	-1.000000	-1.000000	-1.000000	-1.000000	14.965517	0.000000	-1.000000	-1.000000	347394.000000	1772914631.406749
3526.155000	90313.155000	-11042.730000	-25796.070000	0.000000	0.000000	0.000000	0.000000	-35.574705	-1.848034	71.664892	13.330186	-0.000000	0.000000	-0.000000	-0.000000	120.248800	40.530560	13.260940	-0.043579	0.624144	0.643553	-1.000000	-1.000000	-1.000000	-1.000000	-1.000000	-1.000000	-1.000000	14.965517	0.000000	-1.000000	-1.000000	347395.000000	1772914631.406752
3260.385000	90308.880000	-11076.885000	-26300.565000	0.000000	0.000000	0.000000	0.000000	-38.764138	17.891209	9.520598	-0.600329	-0.000000	0.000000	-0.000000	-0.000000	85.456000	14.954800	17.457440	-0.043701	0.724119	0.687437	-1.000000	-1.000000	-1.000000	-1.000000	-1.000000	-1.000000	-1.000000	14.965517	0.000000	-1.000000	-1.000000	347396.000000	1772914631.409823
2959.515000	90294.120000	-10990.890000	-26345.970000	0.000000	0.000000	0.000000	0.000000	-32.272239	27.862438	-47.073042	-20.428102	-0.000000	0.000000	-0.000000	-0.000000	85.456000	14.954800	17.457440	-0.043701	0.724119	0.687437	-1.000000	-1.000000	-1.000000	-1.000000	-1.000000	-1.000000	-1.000000	14.965517	0.000000	-1.000000	-1.000000	347397.000000	1772914631.409826
2902.185000	90277.470000	-10923.660000	-26253.900000	0.000000	0.000000	0.000000	0.000000	-46.884087	21.723571	-68.009101	-61.884406	-0.000000	0.000000	-0.000000	-0.000000	85.456000	14.954800	17.457440	-0.043701	0.724119	0.687437	-1.000000	-1.000000	-1.000000	-1.000000	-1.000000	-1.000000	-1.000000	14.965517	0.000000	-1.000000	-1.000000	347398.000000	1772914631.412685
3070.530000	90261.045000	-10880.190000	-26141.580000	0.000000	0.000000	0.000000	0.000000	-66.466888	3.426025	-42.761774	-81.324471	-0.000000	0.000000	-0.000000	-0.000000	85.456000	14.954800	17.457440	-0.043701	0.724119	0.687437	-1.000000	-1.000000	-1.000000	-1.000000	-1.000000	-1.000000	-1.000000	14.965517	0.000000	-1.000000	-1.000000	347399.000000	1772914631.412688
3381.750000	90259.200000	-10693.440000	-26036.190000	0.000000	0.000000	0.000000	0.000000	-38.663691	-15.969344	9.746215	-40.021897	-0.000000	0.000000	-0.000000	-0.000000	85.456000	14.954800	17.457440	-0.043701	0.724119	0.687437	-1.000000	-1.000000	-1.000000	-1.000000	-1.000000	-1.000000	-1.000000	14.965517	0.000000	-1.000000	-1.000000	347400.000000	1772914631.416105
3267.900000	90252.630000	-10995.165000	-26233.020000	0.000000	0.000000	0.000000	0.000000	50.472818	-25.928849	53.905181	39.099648	-0.000000	0.000000	-0.000000	-0.000000	85.456000	14.954800	17.457440	-0.043701	0.724119	0.687437	-1.000000	-1.000000	-1.000000	-1.000000	-1.000000	-1.000000	-1.000000	14.965517	0.000000	-1.000000	-1.000000	347401.000000	1772914631.416107
3041.100000	90261.090000	-11193.480000	-26449.155000	0.000000	0.000000	0.000000	0.000000	137.390651	-22.437695	50.070814	89.881716	-0.000000	0.000000	-0.000000	-0.000000	85.456000	14.954800	17.457440	-0.043701	0.724119	0.687437	-1.000000	-1.000000	-1.000000	-1.000000	-1.000000	-1.000000	-1.000000	14.965517	0.000000	-1.000000	-1.000000	347402.000000	1772914631.420164
3017.745000	90285.435000	-11156.625000	-26387.505000	0.000000	0.000000	0.000000	0.000000	142.914175	-8.484488	-9.086808	71.231133	-0.000000	0.000000	-0.000000	-0.000000	85.456000	14.954800	17.457440	-0.043701	0.724119	0.687437	-1.000000	-1.000000	-1.000000	-1.000000	-1.000000	-1.000000	-1.000000	14.965517	0.000000	-1.000000	-1.000000	347403.000000	1772914631.420167
3137.220000	90307.710000	-11022.930000	-26302.545000	0.000000	0.000000	0.000000	0.000000	64.513901	9.276341	-71.582591	12.741812	-0.000000	0.000000	-0.000000	-0.000000	85.456000	14.954800	17.457440	-0.043701	0.724119	0.687437	-1.000000	-1.000000	-1.000000	-1.000000	-1.000000	-1.000000	-1.000000	14.965517	0.000000	-1.000000	-1.000000	347404.000000	1772914631.424118
3170.475000	90311.085000	-10875.330000	-26247.105000	0.000000	0.000000	0.000000	0.000000	-27.965324	23.128335	-73.748475	-24.723243	-0.000000	0.000000	-0.000000	-0.000000	85.456000	14.954800	17.457440	-0.043701	0.724119	0.687437	-1.000000	-1.000000	-1.000000	-1.000000	-1.000000	-1.000000	-1.000000	14.965517	0.000000	-1.000000	-1.000000	347405.000000	1772914631.424120
3193.515000	90292.230000	-10818.180000	-26144.370000	0.000000	0.000000	0.000000	0.000000	-73.928652	26.256620	-6.851876	-14.851195	-0.000000	0.000000	-0.000000	-0.000000	3.250380	-32.274900	-2.304260	-0.084289	0.847532	0.739073	-1.000000	-1.000000	-1.000000	-1.000000	-1.000000	-1.000000	-1.000000	14.965517	0.000000	-1.000000	-1.000000	347406.000000	1772914631.428161
3153.645000	90264.105000	-10884.465000	-26177.040000	0.000000	0.000000	0.000000	0.000000	-67.651840	15.999216	76.615118	21.716992	-0.000000	0.000000	-0.000000	-0.000000	3.250380	-32.274900	-2.304260	-0.084289	0.847532	0.739073	-1.000000	-1.000000	-1.000000	-1.000000	-1.000000	-1.000000	-1.000000	14.965517	0.000000	-1.000000	-1.000000	347407.000000	1772914631.428164
3148.290000	90255.105000	-10878.885000	-26285.580000	0.000000	0.000000	0.000000	0.000000	-38.702770	-3.167099	112.714674	44.070996	-0.000000	0.000000	-0.000000	-0.000000	3.250380	-32.274900	-2.304260	-0.084289	0.847532	0.739073	-1.000000	-1.000000	-1.000000	-1.000000	-1.000000	-1.000000	-1.000000	14.965517	0.000000	-1.000000	-1.000000	347408.000000	1772914631.432350
3181.320000	90266.580000	-10758.780000	-26173.665000	0.000000	0.000000	0.000000	0.000000	-13.965503	-20.567293	82.297778	27.909056	-0.000000	0.000000	-0.000000	-0.000000	3.250380	-32.274900	-2.304260	-0.084289	0.847532	0.739073	-1.000000	-1.000000	-1.000000	-1.000000	-1.000000	-1.000000	-1.000000	14.965517	0.000000	-1.000000	-1.000000	347409.000000	1772914631.432352
3223.755000	90285.795000	-10714.995000	-26169.165000	0.000000	0.000000	0.000000	0.000000	-0.036053	-25.746181	18.630400	-11.647825	-0.000000	0.000000	-0.000000	-0.000000	3.250380	-32.274900	-2.304260	-0.084289	0.847532	0.739073	-1.000000	-1.000000	-1.000000	-1.000000	-1.000000	-1.000000	-1.000000	14.965517	0.000000	-1.000000	-1.000000	347410.000000	1772914631.436093
3178.935000	90303.930000	-10824.525000	-26274.465000	0.000000	0.000000	0.000000	0.000000	7.106253	-15.973272	-37.908695	-44.600490	-0.000000	0.000000	-0.000000	-0.000000	3.250380	-32.274900	-2.304260	-0.084289	0.847532	0.739073	-1.000000	-1.000000	-1.000000	-1.000000	-1.000000	-1.000000	-1.000000	14.965517	0.000000	-1.000000	-1.000000	347411.000000	1772914631.436096
3130.785000	90318.510000	-10857.915000	-26358.840000	0.000000	0.000000	0.000000	0.000000	7.325179	2.087175	-73.867303	-61.001430	-0.000000	0.000000	-0.000000	-0.000000	3.250380	-32.274900	-2.304260	-0.084289	0.847532	0.739073	-1.000000	-1.000000	-1.000000	-1.000000	-1.000000	-1.000000	-1.000000	14.965517	0.000000	-1.000000	-1.000000	347412.000000	1772914631.440064
3220.380000	90328.680000	-10690.920000	-26187.480000	0.000000	0.000000	0.000000	0.000000	0.631044	17.673636	-86.422761	-60.801554	-0.000000	0.000000	-0.000000	-0.000000	3.250380	-32.274900	-2.304260	-0.084289	0.847532	0.739073	-1.000000	-1.000000	-1.000000	-1.000000	-1.000000	-1.000000	-1.000000	14.965517	0.000000	-1.000000	-1.000000	347413.000000	1772914631.440067
3191.355000	90310.815000	-10736.595000	-26189.865000	0.000000	0.000000	0.000000	0.000000	-4.564192	22.542055	-67.797797	-36.513004	-0.000000	0.000000	-0.000000	-0.000000	3.250380	-32.274900	-2.304260	-0.084289	0.847532	0.739073	-1.000000	-1.000000	-1.000000	-1.000000	-1.000000	-1.000000	-1.000000	14.965517	0.000000	-1.000000	-1.000000	347414.000000	1772914631.446962
3146.445000	90281.475000	-10775.205000	-26232.840000	0.000000	0.000000	0.000000	0.000000	-3.123887	14.244502	-25.624325	7.201934	-0.000000	0.000000	-0.000000	-0.000000	3.250380	-32.274900	-2.304260	-0.084289	0.847532	0.739073	-1.000000	-1.000000	-1.000000	-1.000000	-1.000000	-1.000000	-1.000000	14.965517	0.000000	-1.000000	-1.000000	347415.000000	1772914631.446965
3203.685000	90261.855000	-10655.055000	-26224.605000	0.000000	0.000000	0.000000	0.000000	0.383667	-3.074050	15.587852	43.992145	-0.000000	0.000000	-0.000000	-0.000000	-67.952780	-62.138720	-21.318220	-0.135254	0.863279	0.733763	-1.000000	-1.000000	-1.000000	-1.000000	-1.000000	-1.000000	-1.000000	14.965517	0.000000	-1.000000	-1.000000	347416.000000	1772914631.448162
3306.825000	90257.715000	-10652.895000	-26207.640000	0.000000	0.000000	0.000000	0.000000	5.489428	-19.898377	41.708611	53.787779	-0.000000	0.000000	-0.000000	-0.000000	-67.952780	-62.138720	-21.318220	-0.135254	0.863279	0.733763	-1.000000	-1.000000	-1.000000	-1.000000	-1.000000	-1.000000	-1.000000	14.965517	0.000000	-1.000000	-1.000000	347417.000000	1772914631.448166
3382.920000	90278.820000	-10642.860000	-26119.080000	0.000000	0.000000	0.000000	0.000000	17.400594	-26.098829	50.880051	40.982461	-0.000000	0.000000	-0.000000	-0.000000	-67.952780	-62.138720	-21.318220	-0.135254	0.863279	0.733763	-1.000000	-1.000000	-1.000000	-1.000000	-1.000000	-1.000000	-1.000000	14.965517	0.000000	-1.000000	-1.000000	347418.000000	1772914631.453640
3378.555000	90307.935000	-10768.770000	-26123.850000	0.000000	0.000000	0.000000	0.000000	31.939405	-17.083540	40.020415	22.007482	-0.000000	0.000000	-0.000000	-0.000000	-67.952780	-62.138720	-21.318220	-0.135254	0.863279	0.733763	-1.000000	-1.000000	-1.000000	-1.000000	-1.000000	-1.000000	-1.000000	14.965517	0.000000	-1.000000	-1.000000	347419.000000	1772914631.453643
3399.975000	90328.815000	-10853.955000	-26159.715000	0.000000	0.000000	0.000000	0.000000	34.260346	2.846259	7.801843	5.258601	-0.000000	0.000000	-0.000000	-0.000000	-67.952780	-62.138720	-21.318220	-0.135254	0.863279	0.733763	-1.000000	-1.000000	-1.000000	-1.000000	-1.000000	-1.000000	-1.000000	14.965517	0.000000	-1.000000	-1.000000	347420.000000	1772914631.457282
3200.220000	90336.510000	-10647.720000	-26130.420000	0.000000	0.000000	0.000000	0.000000	12.359216	22.514210	-29.655909	-10.974574	-0.000000	0.000000	-0.000000	-0.000000	-67.952780	-62.138720	-21.318220	-0.135254	0.863279	0.733763	-1.000000	-1.000000	-1.000000	-1.000000	-1.000000	-1.000000	-1.000000	14.965517	0.000000	-1.000000	-1.000000	347421.000000	1772914631.457284
2941.335000	90314.325000	-10801.845000	-26305.695000	0.000000	0.000000	0.000000	0.000000	-36.192980	30.382190	-43.502140	-28.439703	-0.000000	0.000000	-0.000000	-0.000000	-67.952780	-62.138720	-21.318220	-0.135254	0.863279	0.733763	-1.000000	-1.000000	-1.000000	-1.000000	-1.000000	-1.000000	-1.000000	14.965517	0.000000	-1.000000	-1.000000	347422.000000	1772914631.461299
3004.290000	90285.525000	-10952.550000	-26367.840000	0.000000	0.000000	0.000000	0.000000	-93.967397	21.270914	-30.331912	-47.104388	-0.000000	0.000000	-0.000000	-0.000000	-67.952780	-62.138720	-21.318220	-0.135254	0.863279	0.733763	-1.000000	-1.000000	-1.000000	-1.000000	-1.000000	-1.000000	-1.000000	14.965517	0.000000	-1.000000	-1.000000	347423.000000	1772914631.461301
3227.535000	90277.830000	-10613.340000	-26269.965000	0.000000	0.000000	0.000000	0.000000	-114.253735	-0.043333	-8.543359	-58.295527	-0.000000	0.000000	-0.000000	-0.000000	-67.952780	-62.138720	-21.318220	-0.135254	0.863279	0.733763	-1.000000	-1.000000	-1.000000	-1.000000	-1.000000	-1.000000	-1.000000	14.965517	0.000000	-1.000000	-1.000000	347424.000000	1772914631.464140
3257.055000	90272.880000	-10442.745000	-26108.955000	0.000000	0.000000	0.000000	0.000000	-59.170202	-21.054604	24.451355	-40.917697	-0.000000	0.000000	-0.000000	-0.000000	-67.952780	-62.138720	-21.318220	-0.135254	0.863279	0.733763	-1.000000	-1.000000	-1.000000	-1.000000	-1.000000	-1.000000	-1.000000	14.965517	0.000000	-1.000000	-1.000000	347425.000000	1772914631.464143
3292.335000	90280.440000	-10513.125000	-26105.175000	0.000000	0.000000	0.000000	0.000000	46.895750	-29.865434	70.444993	11.973275	-0.000000	0.000000	-0.000000	-0.000000	-5.691980	-60.658500	-17.610040	-0.146362	0.758726	0.721556	-1.000000	-1.000000	-1.000000	-1.000000	-1.000000	-1.000000	-1.000000	14.965517	0.000000	-1.000000	-1.000000	347426.000000	1772914631.468153
3356.595000	90304.200000	-10603.620000	-26142.255000	0.000000	0.000000	0.000000	0.000000	135.096434	-22.517182	93.094524	70.283159	-0.000000	0.000000	-0.000000	-0.000000	-5.691980	-60.658500	-17.610040	-0.146362	0.758726	0.721556	-1.000000	-1.000000	-1.000000	-1.000000	-1.000000	-1.000000	-1.000000	14.965517	0.000000	-1.000000	-1.000000	347427.000000	1772914631.468156
3332.295000	90335.385000	-10447.425000	-26002.395000	0.000000	0.000000	0.000000	0.000000	155.157218	-3.594632	60.757931	93.939535	-0.000000	0.000000	-0.000000	-0.000000	-5.691980	-60.658500	-17.610040	-0.146362	0.758726	0.721556	-1.000000	-1.000000	-1.000000	-1.000000	-1.000000	-1.000000	-1.000000	14.965517	0.000000	-1.000000	-1.000000	347428.000000	1772914631.472151
3109.860000	90338.850000	-10661.625000	-26146.170000	0.000000	0.000000	0.000000	0.000000	99.504559	17.003170	-9.653609	71.288555	-0.000000	0.000000	-0.000000	-0.000000	-5.691980	-60.658500	-17.610040	-0.146362	0.758726	0.721556	-1.000000	-1.000000	-1.000000	-1.000000	-1.000000	-1.000000	-1.000000	14.965517	0.000000	-1.000000	-1.000000	347429.000000	1772914631.472154
2888.595000	90316.935000	-10941.750000	-26523.315000	0.000000	0.000000	0.000000	0.000000	-9.123531	28.073933	-84.942904	9.461551	-0.000000	0.000000	-0.000000	-0.000000	-5.691980	-60.658500	-17.610040	-0.146362	0.758726	0.721556	-1.000000	-1.000000	-1.000000	-1.000000	-1.000000	-1.000000	-1.000000	14.965517	0.000000	-1.000000	-1.000000	347430.000000	1772914631.475994
3027.735000	90308.115000	-10717.650000	-26414.415000	0.000000	0.000000	0.000000	0.000000	-120.384613	23.142508	-138.510700	-74.354109	-0.000000	0.000000	-0.000000	-0.000000	-5.691980	-60.658500	-17.610040	-0.146362	0.758726	0.721556	-1.000000	-1.000000	-1.000000	-1.000000	-1.000000	-1.000000	-1.000000	14.965517	0.000000	-1.000000	-1.000000	347431.000000	1772914631.475998
3272.580000	90294.930000	-10542.870000	-26215.425000	0.000000	0.000000	0.000000	0.000000	-163.951205	5.618504	-132.209843	-129.444246	-0.000000	0.000000	-0.000000	-0.000000	-5.691980	-60.658500	-17.610040	-0.146362	0.758726	0.721556	-1.000000	-1.000000	-1.000000	-1.000000	-1.000000	-1.000000	-1.000000	14.965517	0.000000	-1.000000	-1.000000	347432.000000	1772914631.480082
3504.510000	90285.165000	-10615.275000	-26095.320000	0.000000	0.000000	0.000000	0.000000	-99.047769	-13.722004	-49.406238	-100.958232	-0.000000	0.000000	-0.000000	-0.000000	-5.691980	-60.658500	-17.610040	-0.146362	0.758726	0.721556	-1.000000	-1.000000	-1.000000	-1.000000	-1.000000	-1.000000	-1.000000	14.965517	0.000000	-1.000000	-1.000000	347433.000000	1772914631.480085
