Channel1	Channel2	Channel3	Channel4	Channel5	Channel6	Channel7	Channel8	FilteredChannel1	FilteredChannel2	FilteredChannel3	FilteredChannel4	FilteredChannel5	FilteredChannel6	FilteredChannel7	FilteredChannel8	GyroX	GyroY	GyroZ	AccX	AccY	AccZ	PPG1	PPG2	rawPPG1	rawPPG2	rawPPG3	Hr	Hrv	Battery	Trigger	PhysicalTrigger	AutoTrigger	NumMeasurements	Timestamp
-5334.120000	116639.145000	-13982.985000	-37733.445000	0.000000	0.000000	0.000000	0.000000	-0.197301	1.900760	0.037413	-1.001075	0.000000	0.000000	-0.000000	0.000000	4.379620	-1.037680	-1.968540	-0.127136	0.786192	0.618101	-1.000000	-1.000000	-1.000000	-1.000000	-1.000000	-1.000000	-1.000000	29.793103	0.000000	-1.000000	-1.000000	103218.000000	1772914143.035971
-5319.135000	116634.105000	-13972.320000	-37723.455000	0.000000	0.000000	0.000000	0.000000	-3.199178	-6.332593	1.374910	-2.850468	0.000000	0.000000	-0.000000	0.000000	4.379620	-1.037680	-1.968540	-0.127136	0.786192	0.618101	-1.000000	-1.000000	-1.000000	-1.000000	-1.000000	-1.000000	-1.000000	29.793103	0.000000	-1.000000	-1.000000	103219.000000	1772914143.035974
-5309.820000	116637.795000	-13962.015000	-37713.960000	0.000000	0.000000	0.000000	0.000000	-5.147830	-11.488958	2.068977	-2.842457	0.000000	0.000000	-0.000000	0.000000	4.379620	-1.037680	-1.968540	-0.127136	0.786192	0.618101	-1.000000	-1.000000	-1.000000	-1.000000	-1.000000	-1.000000	-1.000000	29.793103	0.000000	-1.000000	-1.000000	103220.000000	1772914143.039988
-5321.520000	116648.775000	-13980.960000	-37729.980000	0.000000	0.000000	0.000000	0.000000	-3.642022	-10.337577	2.406753	-0.789662	0.000000	0.000000	-0.000000	0.000000	4.379620	-1.037680	-1.968540	-0.127136	0.786192	0.618101	-1.000000	-1.000000	-1.000000	-1.000000	-1.000000	-1.000000	-1.000000	29.793103	0.000000	-1.000000	-1.000000	103221.000000	1772914143.039990
-5305.140000	116662.185000	-13979.115000	-37723.050000	0.000000	0.000000	0.000000	0.000000	0.196198	-3.107301	1.325066	1.145716	0.000000	0.000000	-0.000000	0.000000	3.631880	-1.602300	-0.915600	-0.128357	0.784727	0.615721	-1.000000	-1.000000	-1.000000	-1.000000	-1.000000	-1.000000	-1.000000	29.793103	0.000000	-1.000000	-1.000000	103222.000000	1772914143.045780
-5291.865000	116670.645000	-13969.620000	-37710.270000	0.000000	0.000000	0.000000	0.000000	4.006399	6.470320	-1.273445	1.567732	0.000000	0.000000	-0.000000	0.000000	3.631880	-1.602300	-0.915600	-0.128357	0.784727	0.615721	-1.000000	-1.000000	-1.000000	-1.000000	-1.000000	-1.000000	-1.000000	29.793103	0.000000	-1.000000	-1.000000	103223.000000	1772914143.045784
-5293.395000	116657.595000	-13962.375000	-37704.870000	0.000000	0.000000	0.000000	0.000000	6.482043	12.929961	-3.049797	1.542319	0.000000	0.000000	-0.000000	0.000000	3.631880	-1.602300	-0.915600	-0.128357	0.784727	0.615721	-1.000000	-1.000000	-1.000000	-1.000000	-1.000000	-1.000000	-1.000000	29.793103	0.000000	-1.000000	-1.000000	103224.000000	1772914143.049118
-5304.645000	116638.605000	-13971.015000	-37720.305000	0.000000	0.000000	0.000000	0.000000	6.104769	11.864426	-2.466742	1.593755	0.000000	0.000000	-0.000000	0.000000	3.631880	-1.602300	-0.915600	-0.128357	0.784727	0.615721	-1.000000	-1.000000	-1.000000	-1.000000	-1.000000	-1.000000	-1.000000	29.793103	0.000000	-1.000000	-1.000000	103225.000000	1772914143.049120
-5312.340000	116625.330000	-13967.550000	-37720.620000	0.000000	0.000000	0.000000	0.000000	1.770635	3.130696	-0.803258	0.396992	0.000000	0.000000	-0.000000	0.000000	3.631880	-1.602300	-0.915600	-0.128357	0.784727	0.615721	-1.000000	-1.000000	-1.000000	-1.000000	-1.000000	-1.000000	-1.000000	29.793103	0.000000	-1.000000	-1.000000	103226.000000	1772914143.052232
-5314.815000	116617.230000	-13966.470000	-37720.170000	0.000000	0.000000	0.000000	0.000000	-4.870257	-8.189622	0.205372	-2.319986	0.000000	0.000000	-0.000000	0.000000	3.631880	-1.602300	-0.915600	-0.128357	0.784727	0.615721	-1.000000	-1.000000	-1.000000	-1.000000	-1.000000	-1.000000	-1.000000	29.793103	0.000000	-1.000000	-1.000000	103227.000000	1772914143.052235
-5309.595000	116617.860000	-13970.385000	-37719.855000	0.000000	0.000000	0.000000	0.000000	-9.772690	-15.124304	0.243157	-4.569078	0.000000	0.000000	-0.000000	0.000000	3.631880	-1.602300	-0.915600	-0.128357	0.784727	0.615721	-1.000000	-1.000000	-1.000000	-1.000000	-1.000000	-1.000000	-1.000000	29.793103	0.000000	-1.000000	-1.000000	103228.000000	1772914143.056061
-5297.580000	116628.795000	-13972.455000	-37716.075000	0.000000	0.000000	0.000000	0.000000	-9.475386	-13.473384	-0.334317	-4.452517	0.000000	0.000000	-0.000000	0.000000	3.631880	-1.602300	-0.915600	-0.128357	0.784727	0.615721	-1.000000	-1.000000	-1.000000	-1.000000	-1.000000	-1.000000	-1.000000	29.793103	0.000000	-1.000000	-1.000000	103229.000000	1772914143.056064
-5289.435000	116643.105000	-13961.655000	-37703.610000	0.000000	0.000000	0.000000	0.000000	-3.719362	-3.981957	-0.862461	-1.714767	0.000000	0.000000	-0.000000	0.000000	3.631880	-1.602300	-0.915600	-0.128357	0.784727	0.615721	-1.000000	-1.000000	-1.000000	-1.000000	-1.000000	-1.000000	-1.000000	29.793103	0.000000	-1.000000	-1.000000	103230.000000	1772914143.060783
-5287.905000	116650.845000	-13961.250000	-37700.730000	0.000000	0.000000	0.000000	0.000000	4.148932	8.368990	-0.393426	2.473510	0.000000	0.000000	-0.000000	0.000000	3.631880	-1.602300	-0.915600	-0.128357	0.784727	0.615721	-1.000000	-1.000000	-1.000000	-1.000000	-1.000000	-1.000000	-1.000000	29.793103	0.000000	-1.000000	-1.000000	103231.000000	1772914143.060786
-5298.210000	116652.060000	-13969.350000	-37711.035000	0.000000	0.000000	0.000000	0.000000	9.206390	17.019044	0.899007	5.664908	0.000000	0.000000	-0.000000	0.000000	3.464020	-2.014320	-0.518840	-0.130005	0.784483	0.616087	-1.000000	-1.000000	-1.000000	-1.000000	-1.000000	-1.000000	-1.000000	29.793103	0.000000	-1.000000	-1.000000	103232.000000	1772914143.064122
-5290.875000	116643.645000	-13959.405000	-37706.130000	0.000000	0.000000	0.000000	0.000000	8.526496	17.346045	1.667415	5.479605	0.000000	0.000000	-0.000000	0.000000	3.464020	-2.014320	-0.518840	-0.130005	0.784483	0.616087	-1.000000	-1.000000	-1.000000	-1.000000	-1.000000	-1.000000	-1.000000	29.793103	0.000000	-1.000000	-1.000000	103233.000000	1772914143.064125
-5299.065000	116623.530000	-13963.095000	-37710.585000	0.000000	0.000000	0.000000	0.000000	3.350707	8.963990	1.412786	2.050775	0.000000	0.000000	-0.000000	0.000000	3.464020	-2.014320	-0.518840	-0.130005	0.784483	0.616087	-1.000000	-1.000000	-1.000000	-1.000000	-1.000000	-1.000000	-1.000000	29.793103	0.000000	-1.000000	-1.000000	103234.000000	1772914143.068073
-5310.180000	116611.785000	-13977.045000	-37725.300000	0.000000	0.000000	0.000000	0.000000	-2.895133	-4.252816	0.371978	-2.452513	0.000000	0.000000	-0.000000	0.000000	3.464020	-2.014320	-0.518840	-0.130005	0.784483	0.616087	-1.000000	-1.000000	-1.000000	-1.000000	-1.000000	-1.000000	-1.000000	29.793103	0.000000	-1.000000	-1.000000	103235.000000	1772914143.068076
-5319.765000	116608.860000	-13980.600000	-37728.315000	0.000000	0.000000	0.000000	0.000000	-7.610926	-15.764550	-1.533196	-6.115055	0.000000	0.000000	-0.000000	0.000000	3.464020	-2.014320	-0.518840	-0.130005	0.784483	0.616087	-1.000000	-1.000000	-1.000000	-1.000000	-1.000000	-1.000000	-1.000000	29.793103	0.000000	-1.000000	-1.000000	103236.000000	1772914143.072023
-5313.105000	116612.280000	-13975.245000	-37720.305000	0.000000	0.000000	0.000000	0.000000	-9.162739	-19.554587	-3.456043	-7.303393	0.000000	0.000000	-0.000000	0.000000	3.464020	-2.014320	-0.518840	-0.130005	0.784483	0.616087	-1.000000	-1.000000	-1.000000	-1.000000	-1.000000	-1.000000	-1.000000	29.793103	0.000000	-1.000000	-1.000000	103237.000000	1772914143.072025
-5298.210000	116621.280000	-13969.890000	-37711.260000	0.000000	0.000000	0.000000	0.000000	-6.275266	-13.715400	-3.390195	-4.609183	0.000000	0.000000	-0.000000	0.000000	3.464020	-2.014320	-0.518840	-0.130005	0.784483	0.616087	-1.000000	-1.000000	-1.000000	-1.000000	-1.000000	-1.000000	-1.000000	29.793103	0.000000	-1.000000	-1.000000	103238.000000	1772914143.076011
-5286.420000	116633.880000	-13963.545000	-37701.405000	0.000000	0.000000	0.000000	0.000000	0.775294	-1.420260	-0.479040	1.439926	0.000000	0.000000	-0.000000	0.000000	3.464020	-2.014320	-0.518840	-0.130005	0.784483	0.616087	-1.000000	-1.000000	-1.000000	-1.000000	-1.000000	-1.000000	-1.000000	29.793103	0.000000	-1.000000	-1.000000	103239.000000	1772914143.076013
-5273.235000	116639.955000	-13952.565000	-37689.345000	0.000000	0.000000	0.000000	0.000000	8.992255	11.196215	3.880171	7.969893	0.000000	0.000000	-0.000000	0.000000	3.464020	-2.014320	-0.518840	-0.130005	0.784483	0.616087	-1.000000	-1.000000	-1.000000	-1.000000	-1.000000	-1.000000	-1.000000	29.793103	0.000000	-1.000000	-1.000000	103240.000000	1772914143.080049
-5267.250000	116637.345000	-13945.725000	-37686.690000	0.000000	0.000000	0.000000	0.000000	14.053252	18.149244	7.324610	11.573546	0.000000	0.000000	-0.000000	0.000000	3.464020	-2.014320	-0.518840	-0.130005	0.784483	0.616087	-1.000000	-1.000000	-1.000000	-1.000000	-1.000000	-1.000000	-1.000000	29.793103	0.000000	-1.000000	-1.000000	103241.000000	1772914143.080052
-5296.815000	116623.755000	-13956.120000	-37700.955000	0.000000	0.000000	0.000000	0.000000	12.502772	16.219264	7.727236	9.916058	0.000000	0.000000	-0.000000	0.000000	3.158820	-2.273740	-0.534100	-0.129150	0.786070	0.615355	-1.000000	-1.000000	-1.000000	-1.000000	-1.000000	-1.000000	-1.000000	29.793103	0.000000	-1.000000	-1.000000	103242.000000	1772914143.086228
-5296.860000	116609.445000	-13956.975000	-37706.220000	0.000000	0.000000	0.000000	0.000000	3.650078	6.402144	4.030084	2.847339	0.000000	0.000000	-0.000000	0.000000	3.158820	-2.273740	-0.534100	-0.129150	0.786070	0.615355	-1.000000	-1.000000	-1.000000	-1.000000	-1.000000	-1.000000	-1.000000	29.793103	0.000000	-1.000000	-1.000000	103243.000000	1772914143.086231
-5290.155000	116604.495000	-13961.745000	-37711.665000	0.000000	0.000000	0.000000	0.000000	-8.115350	-6.314495	-2.423607	-6.561591	0.000000	0.000000	-0.000000	0.000000	3.158820	-2.273740	-0.534100	-0.129150	0.786070	0.615355	-1.000000	-1.000000	-1.000000	-1.000000	-1.000000	-1.000000	-1.000000	29.793103	0.000000	-1.000000	-1.000000	103244.000000	1772914143.088015
-5305.725000	116609.580000	-13974.480000	-37719.270000	0.000000	0.000000	0.000000	0.000000	-15.679217	-15.206536	-8.445263	-13.436351	0.000000	0.000000	-0.000000	0.000000	3.158820	-2.273740	-0.534100	-0.129150	0.786070	0.615355	-1.000000	-1.000000	-1.000000	-1.000000	-1.000000	-1.000000	-1.000000	29.793103	0.000000	-1.000000	-1.000000	103245.000000	1772914143.088018
-5299.020000	116621.595000	-13964.940000	-37704.690000	0.000000	0.000000	0.000000	0.000000	-15.522106	-15.536127	-11.190740	-14.228478	0.000000	0.000000	-0.000000	0.000000	3.158820	-2.273740	-0.534100	-0.129150	0.786070	0.615355	-1.000000	-1.000000	-1.000000	-1.000000	-1.000000	-1.000000	-1.000000	29.793103	0.000000	-1.000000	-1.000000	103246.000000	1772914143.094030
-5277.645000	116636.085000	-13950.090000	-37686.195000	0.000000	0.000000	0.000000	0.000000	-8.637733	-7.394633	-8.905557	-8.092049	0.000000	0.000000	-0.000000	0.000000	3.158820	-2.273740	-0.534100	-0.129150	0.786070	0.615355	-1.000000	-1.000000	-1.000000	-1.000000	-1.000000	-1.000000	-1.000000	29.793103	0.000000	-1.000000	-1.000000	103247.000000	1772914143.094033
-5275.395000	116637.885000	-13951.755000	-37683.495000	0.000000	0.000000	0.000000	0.000000	1.945546	4.327721	-1.971217	2.484248	0.000000	0.000000	-0.000000	0.000000	3.158820	-2.273740	-0.534100	-0.129150	0.786070	0.615355	-1.000000	-1.000000	-1.000000	-1.000000	-1.000000	-1.000000	-1.000000	29.793103	0.000000	-1.000000	-1.000000	103248.000000	1772914143.096065
-5300.595000	116642.430000	-13975.785000	-37709.145000	0.000000	0.000000	0.000000	0.000000	10.927465	12.905493	5.433894	11.361109	0.000000	0.000000	-0.000000	0.000000	3.158820	-2.273740	-0.534100	-0.129150	0.786070	0.615355	-1.000000	-1.000000	-1.000000	-1.000000	-1.000000	-1.000000	-1.000000	29.793103	0.000000	-1.000000	-1.000000	103249.000000	1772914143.096068
-5307.480000	116638.965000	-13978.080000	-37717.065000	0.000000	0.000000	0.000000	0.000000	12.622621	14.002367	7.986715	12.371557	0.000000	0.000000	-0.000000	0.000000	3.158820	-2.273740	-0.534100	-0.129150	0.786070	0.615355	-1.000000	-1.000000	-1.000000	-1.000000	-1.000000	-1.000000	-1.000000	29.793103	0.000000	-1.000000	-1.000000	103250.000000	1772914143.099919
-5302.755000	116627.085000	-13966.470000	-37708.515000	0.000000	0.000000	0.000000	0.000000	6.642867	7.744138	5.049635	5.489642	0.000000	0.000000	-0.000000	0.000000	3.158820	-2.273740	-0.534100	-0.129150	0.786070	0.615355	-1.000000	-1.000000	-1.000000	-1.000000	-1.000000	-1.000000	-1.000000	29.793103	0.000000	-1.000000	-1.000000	103251.000000	1772914143.099922
-5316.840000	116617.410000	-13974.840000	-37719.315000	0.000000	0.000000	0.000000	0.000000	-1.573912	-2.364697	0.863715	-3.078691	0.000000	0.000000	-0.000000	0.000000	1.541260	-1.953280	0.167860	-0.127136	0.786314	0.614745	-1.000000	-1.000000	-1.000000	-1.000000	-1.000000	-1.000000	-1.000000	29.793103	0.000000	-1.000000	-1.000000	103252.000000	1772914143.104075
-5324.040000	116616.870000	-13981.815000	-37726.695000	0.000000	0.000000	0.000000	0.000000	-6.863737	-11.315269	-1.329833	-7.801726	0.000000	0.000000	-0.000000	0.000000	1.541260	-1.953280	0.167860	-0.127136	0.786314	0.614745	-1.000000	-1.000000	-1.000000	-1.000000	-1.000000	-1.000000	-1.000000	29.793103	0.000000	-1.000000	-1.000000	103253.000000	1772914143.104079
-5307.075000	116620.560000	-13978.620000	-37719.405000	0.000000	0.000000	0.000000	0.000000	-7.328653	-14.621936	-1.590715	-7.476223	0.000000	0.000000	-0.000000	0.000000	1.541260	-1.953280	0.167860	-0.127136	0.786314	0.614745	-1.000000	-1.000000	-1.000000	-1.000000	-1.000000	-1.000000	-1.000000	29.793103	0.000000	-1.000000	-1.000000	103254.000000	1772914143.108028
-5285.655000	116635.005000	-13964.985000	-37700.370000	0.000000	0.000000	0.000000	0.000000	-2.728069	-10.557700	-0.512180	-2.989978	0.000000	0.000000	-0.000000	0.000000	1.541260	-1.953280	0.167860	-0.127136	0.786314	0.614745	-1.000000	-1.000000	-1.000000	-1.000000	-1.000000	-1.000000	-1.000000	29.793103	0.000000	-1.000000	-1.000000	103255.000000	1772914143.108030
-5291.955000	116647.425000	-13962.960000	-37694.925000	0.000000	0.000000	0.000000	0.000000	4.998634	-1.076905	1.797756	3.926073	0.000000	0.000000	-0.000000	0.000000	1.541260	-1.953280	0.167860	-0.127136	0.786314	0.614745	-1.000000	-1.000000	-1.000000	-1.000000	-1.000000	-1.000000	-1.000000	29.793103	0.000000	-1.000000	-1.000000	103256.000000	1772914143.114000
-5276.205000	116649.720000	-13963.230000	-37695.375000	0.000000	0.000000	0.000000	0.000000	11.069160	9.020065	4.157339	9.822142	0.000000	0.000000	-0.000000	0.000000	1.541260	-1.953280	0.167860	-0.127136	0.786314	0.614745	-1.000000	-1.000000	-1.000000	-1.000000	-1.000000	-1.000000	-1.000000	29.793103	0.000000	-1.000000	-1.000000	103257.000000	1772914143.114003
-5276.790000	116640.225000	-13964.580000	-37700.370000	0.000000	0.000000	0.000000	0.000000	11.583114	14.226321	4.510511	10.830518	0.000000	0.000000	-0.000000	0.000000	1.541260	-1.953280	0.167860	-0.127136	0.786314	0.614745	-1.000000	-1.000000	-1.000000	-1.000000	-1.000000	-1.000000	-1.000000	29.793103	0.000000	-1.000000	-1.000000	103258.000000	1772914143.116012
-5313.555000	116627.895000	-13963.095000	-37704.105000	0.000000	0.000000	0.000000	0.000000	5.783512	11.430939	2.110323	5.859374	0.000000	0.000000	-0.000000	0.000000	1.541260	-1.953280	0.167860	-0.127136	0.786314	0.614745	-1.000000	-1.000000	-1.000000	-1.000000	-1.000000	-1.000000	-1.000000	29.793103	0.000000	-1.000000	-1.000000	103259.000000	1772914143.116015
-5329.305000	116615.745000	-13963.770000	-37708.515000	0.000000	0.000000	0.000000	0.000000	-4.955940	2.137243	-1.693112	-2.377426	0.000000	0.000000	-0.000000	0.000000	1.541260	-1.953280	0.167860	-0.127136	0.786314	0.614745	-1.000000	-1.000000	-1.000000	-1.000000	-1.000000	-1.000000	-1.000000	29.793103	0.000000	-1.000000	-1.000000	103260.000000	1772914143.120091
-5306.670000	116614.890000	-13964.895000	-37707.930000	0.000000	0.000000	0.000000	0.000000	-15.612816	-8.241567	-4.820765	-9.398505	0.000000	0.000000	-0.000000	0.000000	1.541260	-1.953280	0.167860	-0.127136	0.786314	0.614745	-1.000000	-1.000000	-1.000000	-1.000000	-1.000000	-1.000000	-1.000000	29.793103	0.000000	-1.000000	-1.000000	103261.000000	1772914143.120095
-5294.610000	116622.135000	-13967.235000	-37704.105000	0.000000	0.000000	0.000000	0.000000	-18.345944	-13.609466	-6.004016	-11.734470	0.000000	0.000000	-0.000000	0.000000	1.495480	-1.663340	0.534100	-0.125183	0.786680	0.616148	-1.000000	-1.000000	-1.000000	-1.000000	-1.000000	-1.000000	-1.000000	29.793103	0.000000	-1.000000	-1.000000	103262.000000	1772914143.124013
-5293.890000	116637.030000	-13967.910000	-37702.080000	0.000000	0.000000	0.000000	0.000000	-10.158360	-10.807546	-5.164036	-8.665336	0.000000	0.000000	-0.000000	0.000000	1.495480	-1.663340	0.534100	-0.125183	0.786680	0.616148	-1.000000	-1.000000	-1.000000	-1.000000	-1.000000	-1.000000	-1.000000	29.793103	0.000000	-1.000000	-1.000000	103263.000000	1772914143.124016
-5291.775000	116644.500000	-13971.015000	-37703.385000	0.000000	0.000000	0.000000	0.000000	3.240779	-1.538694	-2.995440	-2.390320	0.000000	0.000000	-0.000000	0.000000	1.495480	-1.663340	0.534100	-0.125183	0.786680	0.616148	-1.000000	-1.000000	-1.000000	-1.000000	-1.000000	-1.000000	-1.000000	29.793103	0.000000	-1.000000	-1.000000	103264.000000	1772914143.129918
-5289.165000	116648.055000	-13968.180000	-37699.785000	0.000000	0.000000	0.000000	0.000000	13.259576	8.619409	-0.404038	3.604829	0.000000	0.000000	-0.000000	0.000000	1.495480	-1.663340	0.534100	-0.125183	0.786680	0.616148	-1.000000	-1.000000	-1.000000	-1.000000	-1.000000	-1.000000	-1.000000	29.793103	0.000000	-1.000000	-1.000000	103265.000000	1772914143.129921
-5279.490000	116643.870000	-13953.465000	-37687.635000	0.000000	0.000000	0.000000	0.000000	15.481550	13.739939	2.196472	7.070118	0.000000	0.000000	-0.000000	0.000000	1.495480	-1.663340	0.534100	-0.125183	0.786680	0.616148	-1.000000	-1.000000	-1.000000	-1.000000	-1.000000	-1.000000	-1.000000	29.793103	0.000000	-1.000000	-1.000000	103266.000000	1772914143.131891
-5287.005000	116629.245000	-13955.355000	-37694.880000	0.000000	0.000000	0.000000	0.000000	10.857251	11.037090	4.708450	7.667516	0.000000	0.000000	-0.000000	0.000000	1.495480	-1.663340	0.534100	-0.125183	0.786680	0.616148	-1.000000	-1.000000	-1.000000	-1.000000	-1.000000	-1.000000	-1.000000	29.793103	0.000000	-1.000000	-1.000000	103267.000000	1772914143.131894
-5296.500000	116613.315000	-13962.465000	-37704.465000	0.000000	0.000000	0.000000	0.000000	2.610873	1.976132	6.009873	5.441948	0.000000	0.000000	-0.000000	0.000000	1.495480	-1.663340	0.534100	-0.125183	0.786680	0.616148	-1.000000	-1.000000	-1.000000	-1.000000	-1.000000	-1.000000	-1.000000	29.793103	0.000000	-1.000000	-1.000000	103268.000000	1772914143.135986
-5294.070000	116605.890000	-13964.130000	-37706.220000	0.000000	0.000000	0.000000	0.000000	-5.834004	-8.672644	4.502947	0.769727	0.000000	0.000000	-0.000000	0.000000	1.495480	-1.663340	0.534100	-0.125183	0.786680	0.616148	-1.000000	-1.000000	-1.000000	-1.000000	-1.000000	-1.000000	-1.000000	29.793103	0.000000	-1.000000	-1.000000	103269.000000	1772914143.135988
-5283.585000	116608.950000	-13958.775000	-37700.370000	0.000000	0.000000	0.000000	0.000000	-10.863383	-15.059664	0.640678	-4.155385	0.000000	0.000000	-0.000000	0.000000	1.495480	-1.663340	0.534100	-0.125183	0.786680	0.616148	-1.000000	-1.000000	-1.000000	-1.000000	-1.000000	-1.000000	-1.000000	29.793103	0.000000	-1.000000	-1.000000	103270.000000	1772914143.139971
-5289.075000	116621.460000	-13958.280000	-37693.080000	0.000000	0.000000	0.000000	0.000000	-10.251657	-13.341718	-2.984581	-6.202870	0.000000	0.000000	-0.000000	0.000000	1.495480	-1.663340	0.534100	-0.125183	0.786680	0.616148	-1.000000	-1.000000	-1.000000	-1.000000	-1.000000	-1.000000	-1.000000	29.793103	0.000000	-1.000000	-1.000000	103271.000000	1772914143.139974
-5302.170000	116634.060000	-13972.320000	-37702.350000	0.000000	0.000000	0.000000	0.000000	-5.605751	-4.052452	-4.586188	-4.372096	0.000000	0.000000	-0.000000	0.000000	2.868880	-1.312360	-0.167860	-0.124145	0.786314	0.618529	-1.000000	-1.000000	-1.000000	-1.000000	-1.000000	-1.000000	-1.000000	29.793103	0.000000	-1.000000	-1.000000	103272.000000	1772914143.143975
-5281.155000	116646.030000	-13962.465000	-37691.595000	0.000000	0.000000	0.000000	0.000000	-0.506023	8.028215	-4.418814	-0.660952	0.000000	0.000000	-0.000000	0.000000	2.868880	-1.312360	-0.167860	-0.124145	0.786314	0.618529	-1.000000	-1.000000	-1.000000	-1.000000	-1.000000	-1.000000	-1.000000	29.793103	0.000000	-1.000000	-1.000000	103273.000000	1772914143.143977
-5277.825000	116639.055000	-13960.980000	-37691.505000	0.000000	0.000000	0.000000	0.000000	3.554003	16.420688	-2.912086	2.515333	0.000000	0.000000	-0.000000	0.000000	2.868880	-1.312360	-0.167860	-0.124145	0.786314	0.618529	-1.000000	-1.000000	-1.000000	-1.000000	-1.000000	-1.000000	-1.000000	29.793103	0.000000	-1.000000	-1.000000	103274.000000	1772914143.149666
-5282.505000	116628.795000	-13958.640000	-37695.060000	0.000000	0.000000	0.000000	0.000000	6.393151	16.339415	-0.210592	3.935016	0.000000	0.000000	-0.000000	0.000000	2.868880	-1.312360	-0.167860	-0.124145	0.786314	0.618529	-1.000000	-1.000000	-1.000000	-1.000000	-1.000000	-1.000000	-1.000000	29.793103	0.000000	-1.000000	-1.000000	103275.000000	1772914143.149669
-5294.925000	116616.915000	-13962.780000	-37705.230000	0.000000	0.000000	0.000000	0.000000	6.618831	7.573119	2.557226	2.993699	0.000000	0.000000	-0.000000	0.000000	2.868880	-1.312360	-0.167860	-0.124145	0.786314	0.618529	-1.000000	-1.000000	-1.000000	-1.000000	-1.000000	-1.000000	-1.000000	29.793103	0.000000	-1.000000	-1.000000	103276.000000	1772914143.152653
-5300.190000	116608.005000	-13964.760000	-37710.855000	0.000000	0.000000	0.000000	0.000000	3.210783	-5.102019	3.753020	-0.078104	0.000000	0.000000	-0.000000	0.000000	2.868880	-1.312360	-0.167860	-0.124145	0.786314	0.618529	-1.000000	-1.000000	-1.000000	-1.000000	-1.000000	-1.000000	-1.000000	29.793103	0.000000	-1.000000	-1.000000	103277.000000	1772914143.152656
-5294.115000	116608.275000	-13960.890000	-37701.945000	0.000000	0.000000	0.000000	0.000000	-1.977520	-14.852735	2.891248	-3.397285	0.000000	0.000000	-0.000000	0.000000	2.868880	-1.312360	-0.167860	-0.124145	0.786314	0.618529	-1.000000	-1.000000	-1.000000	-1.000000	-1.000000	-1.000000	-1.000000	29.793103	0.000000	-1.000000	-1.000000	103278.000000	1772914143.155884
-5274.585000	116619.120000	-13955.535000	-37690.605000	0.000000	0.000000	0.000000	0.000000	-4.926151	-16.654916	1.152348	-4.134239	0.000000	0.000000	-0.000000	0.000000	2.868880	-1.312360	-0.167860	-0.124145	0.786314	0.618529	-1.000000	-1.000000	-1.000000	-1.000000	-1.000000	-1.000000	-1.000000	29.793103	0.000000	-1.000000	-1.000000	103279.000000	1772914143.155887
-5283.180000	116633.655000	-13957.155000	-37687.590000	0.000000	0.000000	0.000000	0.000000	-3.256893	-9.723338	-0.013372	-1.142169	0.000000	0.000000	-0.000000	0.000000	2.868880	-1.312360	-0.167860	-0.124145	0.786314	0.618529	-1.000000	-1.000000	-1.000000	-1.000000	-1.000000	-1.000000	-1.000000	29.793103	0.000000	-1.000000	-1.000000	103280.000000	1772914143.160888
-5273.595000	116647.380000	-13948.245000	-37680.480000	0.000000	0.000000	0.000000	0.000000	1.083396	2.219832	-0.241441	3.519627	0.000000	0.000000	-0.000000	0.000000	2.868880	-1.312360	-0.167860	-0.124145	0.786314	0.618529	-1.000000	-1.000000	-1.000000	-1.000000	-1.000000	-1.000000	-1.000000	29.793103	0.000000	-1.000000	-1.000000	103281.000000	1772914143.160891
-5282.820000	116649.360000	-13960.305000	-37692.900000	0.000000	0.000000	0.000000	0.000000	4.166078	12.865543	-0.134910	6.276526	0.000000	0.000000	-0.000000	0.000000	4.089680	-0.930860	-0.381500	-0.122680	0.783201	0.619627	-1.000000	-1.000000	-1.000000	-1.000000	-1.000000	-1.000000	-1.000000	29.793103	0.000000	-1.000000	-1.000000	103282.000000	1772914143.163997
-5300.010000	116642.655000	-13972.545000	-37707.705000	0.000000	0.000000	0.000000	0.000000	3.469195	16.538714	-0.884302	4.561429	0.000000	0.000000	-0.000000	0.000000	4.089680	-0.930860	-0.381500	-0.122680	0.783201	0.619627	-1.000000	-1.000000	-1.000000	-1.000000	-1.000000	-1.000000	-1.000000	29.793103	0.000000	-1.000000	-1.000000	103283.000000	1772914143.163999
-5298.615000	116630.055000	-13966.380000	-37705.455000	0.000000	0.000000	0.000000	0.000000	-0.833042	11.234970	-2.897973	-1.134663	0.000000	0.000000	-0.000000	0.000000	4.089680	-0.930860	-0.381500	-0.122680	0.783201	0.619627	-1.000000	-1.000000	-1.000000	-1.000000	-1.000000	-1.000000	-1.000000	29.793103	0.000000	-1.000000	-1.000000	103284.000000	1772914143.167958
-5305.320000	116620.425000	-13969.755000	-37712.520000	0.000000	0.000000	0.000000	0.000000	-5.664957	-0.174599	-4.462683	-6.971968	0.000000	0.000000	-0.000000	0.000000	4.089680	-0.930860	-0.381500	-0.122680	0.783201	0.619627	-1.000000	-1.000000	-1.000000	-1.000000	-1.000000	-1.000000	-1.000000	29.793103	0.000000	-1.000000	-1.000000	103285.000000	1772914143.167961
-5305.095000	116617.185000	-13968.855000	-37711.710000	0.000000	0.000000	0.000000	0.000000	-7.429649	-11.507942	-3.682781	-8.998512	0.000000	0.000000	-0.000000	0.000000	4.089680	-0.930860	-0.381500	-0.122680	0.783201	0.619627	-1.000000	-1.000000	-1.000000	-1.000000	-1.000000	-1.000000	-1.000000	29.793103	0.000000	-1.000000	-1.000000	103286.000000	1772914143.171921
-5299.785000	116626.140000	-13968.765000	-37706.445000	0.000000	0.000000	0.000000	0.000000	-4.891003	-16.683580	-0.742105	-6.134771	0.000000	0.000000	-0.000000	0.000000	4.089680	-0.930860	-0.381500	-0.122680	0.783201	0.619627	-1.000000	-1.000000	-1.000000	-1.000000	-1.000000	-1.000000	-1.000000	29.793103	0.000000	-1.000000	-1.000000	103287.000000	1772914143.171926
-5284.890000	116640.630000	-13961.070000	-37694.565000	0.000000	0.000000	0.000000	0.000000	0.833592	-12.945874	2.815917	0.119998	0.000000	0.000000	-0.000000	0.000000	4.089680	-0.930860	-0.381500	-0.122680	0.783201	0.619627	-1.000000	-1.000000	-1.000000	-1.000000	-1.000000	-1.000000	-1.000000	29.793103	0.000000	-1.000000	-1.000000	103288.000000	1772914143.175902
-5277.150000	116654.535000	-13960.305000	-37692.990000	0.000000	0.000000	0.000000	0.000000	7.339888	-2.319488	5.513759	6.874048	0.000000	0.000000	-0.000000	0.000000	4.089680	-0.930860	-0.381500	-0.122680	0.783201	0.619627	-1.000000	-1.000000	-1.000000	-1.000000	-1.000000	-1.000000	-1.000000	29.793103	0.000000	-1.000000	-1.000000	103289.000000	1772914143.175906
-5283.630000	116658.135000	-13964.985000	-37698.660000	0.000000	0.000000	0.000000	0.000000	11.383548	9.390665	6.192041	10.678707	0.000000	0.000000	-0.000000	0.000000	4.089680	-0.930860	-0.381500	-0.122680	0.783201	0.619627	-1.000000	-1.000000	-1.000000	-1.000000	-1.000000	-1.000000	-1.000000	29.793103	0.000000	-1.000000	-1.000000	103290.000000	1772914143.179951
-5285.475000	116652.735000	-13955.805000	-37692.450000	0.000000	0.000000	0.000000	0.000000	10.172333	15.724367	4.424113	9.394148	0.000000	0.000000	-0.000000	0.000000	4.089680	-0.930860	-0.381500	-0.122680	0.783201	0.619627	-1.000000	-1.000000	-1.000000	-1.000000	-1.000000	-1.000000	-1.000000	29.793103	0.000000	-1.000000	-1.000000	103291.000000	1772914143.179954
-5302.620000	116640.045000	-13959.090000	-37700.550000	0.000000	0.000000	0.000000	0.000000	3.566676	13.223468	1.238521	3.952591	0.000000	0.000000	-0.000000	0.000000	6.790700	-0.076300	-1.068200	-0.121521	0.780821	0.619505	-1.000000	-1.000000	-1.000000	-1.000000	-1.000000	-1.000000	-1.000000	29.793103	0.000000	-1.000000	-1.000000	103292.000000	1772914143.183876
-5289.030000	116627.580000	-13954.005000	-37701.000000	0.000000	0.000000	0.000000	0.000000	-5.147107	3.389199	-1.730607	-2.675896	0.000000	0.000000	-0.000000	0.000000	6.790700	-0.076300	-1.068200	-0.121521	0.780821	0.619505	-1.000000	-1.000000	-1.000000	-1.000000	-1.000000	-1.000000	-1.000000	29.793103	0.000000	-1.000000	-1.000000	103293.000000	1772914143.183879
-5282.145000	116610.165000	-13955.670000	-37701.945000	0.000000	0.000000	0.000000	0.000000	-10.762065	-8.461464	-3.506743	-7.565446	0.000000	0.000000	-0.000000	0.000000	6.790700	-0.076300	-1.068200	-0.121521	0.780821	0.619505	-1.000000	-1.000000	-1.000000	-1.000000	-1.000000	-1.000000	-1.000000	29.793103	0.000000	-1.000000	-1.000000	103294.000000	1772914143.188049
-5316.165000	116610.570000	-13980.015000	-37718.280000	0.000000	0.000000	0.000000	0.000000	-10.624961	-16.298467	-4.381362	-9.200990	0.000000	0.000000	-0.000000	0.000000	6.790700	-0.076300	-1.068200	-0.121521	0.780821	0.619505	-1.000000	-1.000000	-1.000000	-1.000000	-1.000000	-1.000000	-1.000000	29.793103	0.000000	-1.000000	-1.000000	103295.000000	1772914143.188052
-5290.560000	116628.120000	-13963.095000	-37696.770000	0.000000	0.000000	0.000000	0.000000	-6.840976	-15.881983	-5.119934	-7.628620	0.000000	0.000000	-0.000000	0.000000	6.790700	-0.076300	-1.068200	-0.121521	0.780821	0.619505	-1.000000	-1.000000	-1.000000	-1.000000	-1.000000	-1.000000	-1.000000	29.793103	0.000000	-1.000000	-1.000000	103296.000000	1772914143.191985
-5264.370000	116645.220000	-13943.925000	-37674.315000	0.000000	0.000000	0.000000	0.000000	-1.327748	-6.569147	-4.453048	-2.816647	0.000000	0.000000	-0.000000	0.000000	6.790700	-0.076300	-1.068200	-0.121521	0.780821	0.619505	-1.000000	-1.000000	-1.000000	-1.000000	-1.000000	-1.000000	-1.000000	29.793103	0.000000	-1.000000	-1.000000	103297.000000	1772914143.191988
-5265.000000	116656.335000	-13950.180000	-37680.255000	0.000000	0.000000	0.000000	0.000000	5.720631	7.374134	-0.606481	4.416224	0.000000	0.000000	-0.000000	0.000000	6.790700	-0.076300	-1.068200	-0.121521	0.780821	0.619505	-1.000000	-1.000000	-1.000000	-1.000000	-1.000000	-1.000000	-1.000000	29.793103	0.000000	-1.000000	-1.000000	103298.000000	1772914143.195981
-5275.890000	116657.235000	-13965.435000	-37698.750000	0.000000	0.000000	0.000000	0.000000	11.244627	18.391267	4.175300	9.722706	0.000000	0.000000	-0.000000	0.000000	6.790700	-0.076300	-1.068200	-0.121521	0.780821	0.619505	-1.000000	-1.000000	-1.000000	-1.000000	-1.000000	-1.000000	-1.000000	29.793103	0.000000	-1.000000	-1.000000	103299.000000	1772914143.195983
-5300.055000	116646.345000	-13966.380000	-37701.585000	0.000000	0.000000	0.000000	0.000000	10.291299	20.170105	5.497149	8.424431	0.000000	0.000000	-0.000000	0.000000	6.790700	-0.076300	-1.068200	-0.121521	0.780821	0.619505	-1.000000	-1.000000	-1.000000	-1.000000	-1.000000	-1.000000	-1.000000	29.793103	0.000000	-1.000000	-1.000000	103300.000000	1772914143.199945
-5297.310000	116632.710000	-13956.165000	-37695.105000	0.000000	0.000000	0.000000	0.000000	2.108940	11.491381	2.743923	1.447343	0.000000	0.000000	-0.000000	0.000000	6.790700	-0.076300	-1.068200	-0.121521	0.780821	0.619505	-1.000000	-1.000000	-1.000000	-1.000000	-1.000000	-1.000000	-1.000000	29.793103	0.000000	-1.000000	-1.000000	103301.000000	1772914143.199948
-5282.415000	116620.830000	-13951.215000	-37695.555000	0.000000	0.000000	0.000000	0.000000	-7.527851	-3.112976	-0.526559	-5.462556	0.000000	0.000000	-0.000000	0.000000	8.347220	0.518840	-1.464960	-0.121277	0.781309	0.619200	-1.000000	-1.000000	-1.000000	-1.000000	-1.000000	-1.000000	-1.000000	29.793103	0.000000	-1.000000	-1.000000	103302.000000	1772914143.203987
-5300.730000	116620.515000	-13957.110000	-37700.505000	0.000000	0.000000	0.000000	0.000000	-11.629431	-15.959965	-1.509820	-7.920280	0.000000	0.000000	-0.000000	0.000000	8.347220	0.518840	-1.464960	-0.121277	0.781309	0.619200	-1.000000	-1.000000	-1.000000	-1.000000	-1.000000	-1.000000	-1.000000	29.793103	0.000000	-1.000000	-1.000000	103303.000000	1772914143.203991
-5301.990000	116631.315000	-13965.615000	-37704.240000	0.000000	0.000000	0.000000	0.000000	-8.954799	-20.381757	-0.930106	-6.015584	0.000000	0.000000	-0.000000	0.000000	8.347220	0.518840	-1.464960	-0.121277	0.781309	0.619200	-1.000000	-1.000000	-1.000000	-1.000000	-1.000000	-1.000000	-1.000000	29.793103	0.000000	-1.000000	-1.000000	103304.000000	1772914143.207909
-5279.895000	116648.775000	-13949.460000	-37683.630000	0.000000	0.000000	0.000000	0.000000	-2.699982	-14.194358	-0.520486	-1.882271	0.000000	0.000000	-0.000000	0.000000	8.347220	0.518840	-1.464960	-0.121277	0.781309	0.619200	-1.000000	-1.000000	-1.000000	-1.000000	-1.000000	-1.000000	-1.000000	29.793103	0.000000	-1.000000	-1.000000	103305.000000	1772914143.207911
-5260.275000	116662.185000	-13939.335000	-37672.200000	0.000000	0.000000	0.000000	0.000000	4.737623	-0.844085	0.028041	3.159903	0.000000	0.000000	-0.000000	0.000000	8.347220	0.518840	-1.464960	-0.121277	0.781309	0.619200	-1.000000	-1.000000	-1.000000	-1.000000	-1.000000	-1.000000	-1.000000	29.793103	0.000000	-1.000000	-1.000000	103306.000000	1772914143.211925
-5272.335000	116662.320000	-13954.680000	-37687.815000	0.000000	0.000000	0.000000	0.000000	11.165868	12.338678	1.311965	7.450714	0.000000	0.000000	-0.000000	0.000000	8.347220	0.518840	-1.464960	-0.121277	0.781309	0.619200	-1.000000	-1.000000	-1.000000	-1.000000	-1.000000	-1.000000	-1.000000	29.793103	0.000000	-1.000000	-1.000000	103307.000000	1772914143.211929
-5293.845000	116650.620000	-13973.805000	-37712.565000	0.000000	0.000000	0.000000	0.000000	12.435727	18.055327	1.442983	7.533276	0.000000	0.000000	-0.000000	0.000000	8.347220	0.518840	-1.464960	-0.121277	0.781309	0.619200	-1.000000	-1.000000	-1.000000	-1.000000	-1.000000	-1.000000	-1.000000	29.793103	0.000000	-1.000000	-1.000000	103308.000000	1772914143.215922
-5291.910000	116639.685000	-13967.595000	-37709.325000	0.000000	0.000000	0.000000	0.000000	6.138638	13.314050	-1.257322	1.786293	0.000000	0.000000	-0.000000	0.000000	8.347220	0.518840	-1.464960	-0.121277	0.781309	0.619200	-1.000000	-1.000000	-1.000000	-1.000000	-1.000000	-1.000000	-1.000000	29.793103	0.000000	-1.000000	-1.000000	103309.000000	1772914143.215925
-5307.435000	116626.050000	-13972.455000	-37715.130000	0.000000	0.000000	0.000000	0.000000	-4.268198	1.268496	-4.712862	-5.988292	0.000000	0.000000	-0.000000	0.000000	8.347220	0.518840	-1.464960	-0.121277	0.781309	0.619200	-1.000000	-1.000000	-1.000000	-1.000000	-1.000000	-1.000000	-1.000000	29.793103	0.000000	-1.000000	-1.000000	103310.000000	1772914143.219979
-5312.790000	116622.495000	-13979.070000	-37721.340000	0.000000	0.000000	0.000000	0.000000	-12.446304	-11.015314	-5.646100	-10.107447	0.000000	0.000000	-0.000000	0.000000	8.347220	0.518840	-1.464960	-0.121277	0.781309	0.619200	-1.000000	-1.000000	-1.000000	-1.000000	-1.000000	-1.000000	-1.000000	29.793103	0.000000	-1.000000	-1.000000	103311.000000	1772914143.219982
-5310.180000	116630.325000	-13968.855000	-37710.045000	0.000000	0.000000	0.000000	0.000000	-14.221985	-16.801639	-3.215466	-8.191639	0.000000	0.000000	-0.000000	0.000000	7.202720	0.839300	-1.876980	-0.120849	0.784788	0.617125	-1.000000	-1.000000	-1.000000	-1.000000	-1.000000	-1.000000	-1.000000	29.793103	0.000000	-1.000000	-1.000000	103312.000000	1772914143.224016
-5280.615000	116642.880000	-13953.690000	-37691.280000	0.000000	0.000000	0.000000	0.000000	-8.582267	-13.120528	1.661565	-1.267598	0.000000	0.000000	-0.000000	0.000000	7.202720	0.839300	-1.876980	-0.120849	0.784788	0.617125	-1.000000	-1.000000	-1.000000	-1.000000	-1.000000	-1.000000	-1.000000	29.793103	0.000000	-1.000000	-1.000000	103313.000000	1772914143.224018
-5265.270000	116648.730000	-13944.105000	-37676.565000	0.000000	0.000000	0.000000	0.000000	2.634048	-2.315228	7.377536	7.772048	0.000000	0.000000	-0.000000	0.000000	7.202720	0.839300	-1.876980	-0.120849	0.784788	0.617125	-1.000000	-1.000000	-1.000000	-1.000000	-1.000000	-1.000000	-1.000000	29.793103	0.000000	-1.000000	-1.000000	103314.000000	1772914143.227927
-5282.775000	116654.310000	-13962.240000	-37693.485000	0.000000	0.000000	0.000000	0.000000	13.801226	9.332845	10.892068	14.260982	0.000000	0.000000	-0.000000	0.000000	7.202720	0.839300	-1.876980	-0.120849	0.784788	0.617125	-1.000000	-1.000000	-1.000000	-1.000000	-1.000000	-1.000000	-1.000000	29.793103	0.000000	-1.000000	-1.000000	103315.000000	1772914143.227929
-5286.825000	116652.105000	-13963.320000	-37698.075000	0.000000	0.000000	0.000000	0.000000	17.484620	15.584188	8.924289	13.470537	0.000000	0.000000	-0.000000	0.000000	7.202720	0.839300	-1.876980	-0.120849	0.784788	0.617125	-1.000000	-1.000000	-1.000000	-1.000000	-1.000000	-1.000000	-1.000000	29.793103	0.000000	-1.000000	-1.000000	103316.000000	1772914143.231943
-5292.000000	116639.505000	-13964.040000	-37704.015000	0.000000	0.000000	0.000000	0.000000	10.948337	13.616523	1.754521	4.937600	0.000000	0.000000	-0.000000	0.000000	7.202720	0.839300	-1.876980	-0.120849	0.784788	0.617125	-1.000000	-1.000000	-1.000000	-1.000000	-1.000000	-1.000000	-1.000000	29.793103	0.000000	-1.000000	-1.000000	103317.000000	1772914143.231946
-5292.855000	116624.835000	-13960.845000	-37702.440000	0.000000	0.000000	0.000000	0.000000	-1.098171	4.761910	-6.112771	-6.218409	0.000000	0.000000	-0.000000	0.000000	7.202720	0.839300	-1.876980	-0.120849	0.784788	0.617125	-1.000000	-1.000000	-1.000000	-1.000000	-1.000000	-1.000000	-1.000000	29.793103	0.000000	-1.000000	-1.000000	103318.000000	1772914143.235901
-5285.565000	116620.830000	-13950.540000	-37692.315000	0.000000	0.000000	0.000000	0.000000	-11.005368	-6.352986	-9.893030	-13.307596	0.000000	0.000000	-0.000000	0.000000	7.202720	0.839300	-1.876980	-0.120849	0.784788	0.617125	-1.000000	-1.000000	-1.000000	-1.000000	-1.000000	-1.000000	-1.000000	29.793103	0.000000	-1.000000	-1.000000	103319.000000	1772914143.235905
-5289.300000	116627.130000	-13951.710000	-37693.080000	0.000000	0.000000	0.000000	0.000000	-13.848508	-13.730740	-8.051113	-12.851739	0.000000	0.000000	-0.000000	0.000000	7.202720	0.839300	-1.876980	-0.120849	0.784788	0.617125	-1.000000	-1.000000	-1.000000	-1.000000	-1.000000	-1.000000	-1.000000	29.793103	0.000000	-1.000000	-1.000000	103320.000000	1772914143.239929
-5302.260000	116642.835000	-13959.405000	-37697.220000	0.000000	0.000000	0.000000	0.000000	-10.150539	-13.139464	-3.017116	-6.611037	0.000000	0.000000	-0.000000	0.000000	7.202720	0.839300	-1.876980	-0.120849	0.784788	0.617125	-1.000000	-1.000000	-1.000000	-1.000000	-1.000000	-1.000000	-1.000000	29.793103	0.000000	-1.000000	-1.000000	103321.000000	1772914143.239932
-5275.080000	116659.980000	-13949.370000	-37684.305000	0.000000	0.000000	0.000000	0.000000	-3.620295	-4.761958	1.367212	0.786651	0.000000	0.000000	-0.000000	0.000000	5.447820	1.007160	-1.297100	-0.120727	0.788267	0.616270	-1.000000	-1.000000	-1.000000	-1.000000	-1.000000	-1.000000	-1.000000	29.793103	0.000000	-1.000000	-1.000000	103322.000000	1772914143.245317
-5255.550000	116672.895000	-13944.330000	-37674.315000	0.000000	0.000000	0.000000	0.000000	3.478884	6.762271	3.481939	6.169031	0.000000	0.000000	-0.000000	0.000000	5.447820	1.007160	-1.297100	-0.120727	0.788267	0.616270	-1.000000	-1.000000	-1.000000	-1.000000	-1.000000	-1.000000	-1.000000	29.793103	0.000000	-1.000000	-1.000000	103323.000000	1772914143.245321
-5258.655000	116667.270000	-13939.695000	-37671.930000	0.000000	0.000000	0.000000	0.000000	9.858244	14.826054	3.991615	8.652775	0.000000	0.000000	-0.000000	0.000000	5.447820	1.007160	-1.297100	-0.120727	0.788267	0.616270	-1.000000	-1.000000	-1.000000	-1.000000	-1.000000	-1.000000	-1.000000	29.793103	0.000000	-1.000000	-1.000000	103324.000000	1772914143.253137
-5297.265000	116654.535000	-13964.220000	-37700.370000	0.000000	0.000000	0.000000	0.000000	11.780175	14.402455	3.108707	7.421773	0.000000	0.000000	-0.000000	0.000000	5.447820	1.007160	-1.297100	-0.120727	0.788267	0.616270	-1.000000	-1.000000	-1.000000	-1.000000	-1.000000	-1.000000	-1.000000	29.793103	0.000000	-1.000000	-1.000000	103325.000000	1772914143.253140
-5311.980000	116641.485000	-13972.455000	-37713.330000	0.000000	0.000000	0.000000	0.000000	5.558471	5.201370	-0.005827	1.633993	0.000000	0.000000	-0.000000	0.000000	5.447820	1.007160	-1.297100	-0.120727	0.788267	0.616270	-1.000000	-1.000000	-1.000000	-1.000000	-1.000000	-1.000000	-1.000000	29.793103	0.000000	-1.000000	-1.000000	103326.000000	1772914143.255992
-5294.070000	116636.670000	-13953.825000	-37698.795000	0.000000	0.000000	0.000000	0.000000	-5.816212	-7.668455	-4.210982	-6.289321	0.000000	0.000000	-0.000000	0.000000	5.447820	1.007160	-1.297100	-0.120727	0.788267	0.616270	-1.000000	-1.000000	-1.000000	-1.000000	-1.000000	-1.000000	-1.000000	29.793103	0.000000	-1.000000	-1.000000	103327.000000	1772914143.255995
-5291.505000	116638.245000	-13954.320000	-37696.590000	0.000000	0.000000	0.000000	0.000000	-13.323644	-16.771568	-5.664001	-10.494749	0.000000	0.000000	-0.000000	0.000000	5.447820	1.007160	-1.297100	-0.120727	0.788267	0.616270	-1.000000	-1.000000	-1.000000	-1.000000	-1.000000	-1.000000	-1.000000	29.793103	0.000000	-1.000000	-1.000000	103328.000000	1772914143.255999
-5295.645000	116648.100000	-13960.035000	-37697.130000	0.000000	0.000000	0.000000	0.000000	-11.364596	-17.027365	-2.700982	-7.639708	0.000000	0.000000	-0.000000	0.000000	5.447820	1.007160	-1.297100	-0.120727	0.788267	0.616270	-1.000000	-1.000000	-1.000000	-1.000000	-1.000000	-1.000000	-1.000000	29.793103	0.000000	-1.000000	-1.000000	103329.000000	1772914143.256001
-5282.100000	116662.140000	-13963.545000	-37696.140000	0.000000	0.000000	0.000000	0.000000	-2.539411	-8.473222	1.829049	-0.317155	0.000000	0.000000	-0.000000	0.000000	5.447820	1.007160	-1.297100	-0.120727	0.788267	0.616270	-1.000000	-1.000000	-1.000000	-1.000000	-1.000000	-1.000000	-1.000000	29.793103	0.000000	-1.000000	-1.000000	103330.000000	1772914143.259936
-5278.995000	116675.910000	-13962.465000	-37692.765000	0.000000	0.000000	0.000000	0.000000	7.049476	4.297724	4.454146	6.435587	0.000000	0.000000	-0.000000	0.000000	5.447820	1.007160	-1.297100	-0.120727	0.788267	0.616270	-1.000000	-1.000000	-1.000000	-1.000000	-1.000000	-1.000000	-1.000000	29.793103	0.000000	-1.000000	-1.000000	103331.000000	1772914143.259939
-5278.275000	116679.690000	-13960.170000	-37691.550000	0.000000	0.000000	0.000000	0.000000	12.588991	14.836921	4.382398	9.379667	0.000000	0.000000	-0.000000	0.000000	5.112100	0.717220	-1.693860	-0.122192	0.788999	0.616515	-1.000000	-1.000000	-1.000000	-1.000000	-1.000000	-1.000000	-1.000000	29.793103	0.000000	-1.000000	-1.000000	103332.000000	1772914143.265125
-5279.355000	116670.735000	-13955.355000	-37690.470000	0.000000	0.000000	0.000000	0.000000	11.944723	17.882006	2.933300	8.084145	0.000000	0.000000	-0.000000	0.000000	5.112100	0.717220	-1.693860	-0.122192	0.788999	0.616515	-1.000000	-1.000000	-1.000000	-1.000000	-1.000000	-1.000000	-1.000000	29.793103	0.000000	-1.000000	-1.000000	103333.000000	1772914143.265128
-5280.840000	116648.145000	-13946.895000	-37687.905000	0.000000	0.000000	0.000000	0.000000	6.102128	11.626031	1.679459	4.051368	0.000000	0.000000	-0.000000	0.000000	5.112100	0.717220	-1.693860	-0.122192	0.788999	0.616515	-1.000000	-1.000000	-1.000000	-1.000000	-1.000000	-1.000000	-1.000000	29.793103	0.000000	-1.000000	-1.000000	103334.000000	1772914143.270706
-5294.475000	116635.185000	-13953.285000	-37698.795000	0.000000	0.000000	0.000000	0.000000	-1.859958	-1.172250	1.105013	-0.714584	0.000000	0.000000	-0.000000	0.000000	5.112100	0.717220	-1.693860	-0.122192	0.788999	0.616515	-1.000000	-1.000000	-1.000000	-1.000000	-1.000000	-1.000000	-1.000000	29.793103	0.000000	-1.000000	-1.000000	103335.000000	1772914143.270709
-5301.360000	116631.990000	-13958.460000	-37702.620000	0.000000	0.000000	0.000000	0.000000	-8.796049	-13.837004	0.274322	-4.861467	0.000000	0.000000	-0.000000	0.000000	5.112100	0.717220	-1.693860	-0.122192	0.788999	0.616515	-1.000000	-1.000000	-1.000000	-1.000000	-1.000000	-1.000000	-1.000000	29.793103	0.000000	-1.000000	-1.000000	103336.000000	1772914143.273689
-5302.980000	116640.765000	-13967.370000	-37706.625000	0.000000	0.000000	0.000000	0.000000	-12.294687	-19.144538	-1.819137	-7.458659	0.000000	0.000000	-0.000000	0.000000	5.112100	0.717220	-1.693860	-0.122192	0.788999	0.616515	-1.000000	-1.000000	-1.000000	-1.000000	-1.000000	-1.000000	-1.000000	29.793103	0.000000	-1.000000	-1.000000	103337.000000	1772914143.273691
-5282.640000	116656.110000	-13956.795000	-37691.955000	0.000000	0.000000	0.000000	0.000000	-10.587085	-13.846917	-4.406727	-7.311406	0.000000	0.000000	-0.000000	0.000000	5.112100	0.717220	-1.693860	-0.122192	0.788999	0.616515	-1.000000	-1.000000	-1.000000	-1.000000	-1.000000	-1.000000	-1.000000	29.793103	0.000000	-1.000000	-1.000000	103338.000000	1772914143.276826
-5269.590000	116669.610000	-13950.045000	-37679.355000	0.000000	0.000000	0.000000	0.000000	-3.416196	-0.758569	-5.113707	-3.524466	0.000000	0.000000	-0.000000	0.000000	5.112100	0.717220	-1.693860	-0.122192	0.788999	0.616515	-1.000000	-1.000000	-1.000000	-1.000000	-1.000000	-1.000000	-1.000000	29.793103	0.000000	-1.000000	-1.000000	103339.000000	1772914143.276828
-5269.590000	116677.800000	-13943.430000	-37668.870000	0.000000	0.000000	0.000000	0.000000	6.221198	13.001782	-2.534515	2.903571	0.000000	0.000000	-0.000000	0.000000	5.112100	0.717220	-1.693860	-0.122192	0.788999	0.616515	-1.000000	-1.000000	-1.000000	-1.000000	-1.000000	-1.000000	-1.000000	29.793103	0.000000	-1.000000	-1.000000	103340.000000	1772914143.279874
-5261.490000	116678.070000	-13936.590000	-37667.520000	0.000000	0.000000	0.000000	0.000000	12.897468	20.207761	1.979559	8.611365	0.000000	0.000000	-0.000000	0.000000	5.112100	0.717220	-1.693860	-0.122192	0.788999	0.616515	-1.000000	-1.000000	-1.000000	-1.000000	-1.000000	-1.000000	-1.000000	29.793103	0.000000	-1.000000	-1.000000	103341.000000	1772914143.279876
-5276.655000	116665.470000	-13949.235000	-37687.095000	0.000000	0.000000	0.000000	0.000000	12.700909	17.325610	5.315490	9.632524	0.000000	0.000000	-0.000000	0.000000	5.127360	0.534100	-1.617560	-0.125183	0.787718	0.615721	-1.000000	-1.000000	-1.000000	-1.000000	-1.000000	-1.000000	-1.000000	29.793103	0.000000	-1.000000	-1.000000	103342.000000	1772914143.285114
-5296.275000	116653.005000	-13963.095000	-37706.445000	0.000000	0.000000	0.000000	0.000000	5.425425	5.907508	4.657850	4.042090	0.000000	0.000000	-0.000000	0.000000	5.127360	0.534100	-1.617560	-0.125183	0.787718	0.615721	-1.000000	-1.000000	-1.000000	-1.000000	-1.000000	-1.000000	-1.000000	29.793103	0.000000	-1.000000	-1.000000	103343.000000	1772914143.285116
-5290.380000	116638.785000	-13960.890000	-37709.730000	0.000000	0.000000	0.000000	0.000000	-5.361614	-8.438387	-0.070311	-5.740631	0.000000	0.000000	-0.000000	0.000000	5.127360	0.534100	-1.617560	-0.125183	0.787718	0.615721	-1.000000	-1.000000	-1.000000	-1.000000	-1.000000	-1.000000	-1.000000	29.793103	0.000000	-1.000000	-1.000000	103344.000000	1772914143.287887
-5286.060000	116638.200000	-13957.605000	-37705.590000	0.000000	0.000000	0.000000	0.000000	-13.266646	-18.804973	-5.250624	-13.410569	0.000000	0.000000	-0.000000	0.000000	5.127360	0.534100	-1.617560	-0.125183	0.787718	0.615721	-1.000000	-1.000000	-1.000000	-1.000000	-1.000000	-1.000000	-1.000000	29.793103	0.000000	-1.000000	-1.000000	103345.000000	1772914143.287890
-5289.705000	116652.105000	-13956.615000	-37695.015000	0.000000	0.000000	0.000000	0.000000	-13.511832	-20.098039	-6.758035	-13.358536	0.000000	0.000000	-0.000000	0.000000	5.127360	0.534100	-1.617560	-0.125183	0.787718	0.615721	-1.000000	-1.000000	-1.000000	-1.000000	-1.000000	-1.000000	-1.000000	29.793103	0.000000	-1.000000	-1.000000	103346.000000	1772914143.292123
-5261.400000	116671.050000	-13952.070000	-37684.710000	0.000000	0.000000	0.000000	0.000000	-6.484913	-11.352047	-3.726960	-5.134514	0.000000	0.000000	-0.000000	0.000000	5.127360	0.534100	-1.617560	-0.125183	0.787718	0.615721	-1.000000	-1.000000	-1.000000	-1.000000	-1.000000	-1.000000	-1.000000	29.793103	0.000000	-1.000000	-1.000000	103347.000000	1772914143.292127
-5278.005000	116682.210000	-13964.040000	-37696.455000	0.000000	0.000000	0.000000	0.000000	3.553221	3.274228	1.264408	6.129606	0.000000	0.000000	-0.000000	0.000000	5.127360	0.534100	-1.617560	-0.125183	0.787718	0.615721	-1.000000	-1.000000	-1.000000	-1.000000	-1.000000	-1.000000	-1.000000	29.793103	0.000000	-1.000000	-1.000000	103348.000000	1772914143.295924
-5265.045000	116684.505000	-13959.045000	-37695.645000	0.000000	0.000000	0.000000	0.000000	10.971434	16.120422	4.714672	13.349771	0.000000	0.000000	-0.000000	0.000000	5.127360	0.534100	-1.617560	-0.125183	0.787718	0.615721	-1.000000	-1.000000	-1.000000	-1.000000	-1.000000	-1.000000	-1.000000	29.793103	0.000000	-1.000000	-1.000000	103349.000000	1772914143.295927
-5298.615000	116672.760000	-13958.910000	-37698.660000	0.000000	0.000000	0.000000	0.000000	11.610218	20.246531	5.147072	12.880376	0.000000	0.000000	-0.000000	0.000000	5.127360	0.534100	-1.617560	-0.125183	0.787718	0.615721	-1.000000	-1.000000	-1.000000	-1.000000	-1.000000	-1.000000	-1.000000	29.793103	0.000000	-1.000000	-1.000000	103350.000000	1772914143.299789
-5315.670000	116656.830000	-13948.875000	-37695.915000	0.000000	0.000000	0.000000	0.000000	4.913588	13.457338	3.731050	6.617293	0.000000	0.000000	-0.000000	0.000000	5.127360	0.534100	-1.617560	-0.125183	0.787718	0.615721	-1.000000	-1.000000	-1.000000	-1.000000	-1.000000	-1.000000	-1.000000	29.793103	0.000000	-1.000000	-1.000000	103351.000000	1772914143.299791
-5279.400000	116645.310000	-13927.410000	-37675.305000	0.000000	0.000000	0.000000	0.000000	-4.713177	-0.430253	2.616454	-0.431809	0.000000	0.000000	-0.000000	0.000000	5.646200	0.503580	-1.129240	-0.125488	0.784239	0.616087	-1.000000	-1.000000	-1.000000	-1.000000	-1.000000	-1.000000	-1.000000	29.793103	0.000000	-1.000000	-1.000000	103352.000000	1772914143.303826
-5268.915000	116645.670000	-13938.390000	-37681.200000	0.000000	0.000000	0.000000	0.000000	-9.212066	-13.665174	2.722229	-4.097015	0.000000	0.000000	-0.000000	0.000000	5.646200	0.503580	-1.129240	-0.125488	0.784239	0.616087	-1.000000	-1.000000	-1.000000	-1.000000	-1.000000	-1.000000	-1.000000	29.793103	0.000000	-1.000000	-1.000000	103353.000000	1772914143.303828
-5289.615000	116650.305000	-13964.265000	-37701.270000	0.000000	0.000000	0.000000	0.000000	-5.223277	-19.042652	1.934423	-4.511776	0.000000	0.000000	-0.000000	0.000000	5.646200	0.503580	-1.129240	-0.125488	0.784239	0.616087	-1.000000	-1.000000	-1.000000	-1.000000	-1.000000	-1.000000	-1.000000	29.793103	0.000000	-1.000000	-1.000000	103354.000000	1772914143.307867
-5289.345000	116666.595000	-13966.470000	-37699.830000	0.000000	0.000000	0.000000	0.000000	1.726308	-14.026987	-2.371031	-4.805144	0.000000	0.000000	-0.000000	0.000000	5.646200	0.503580	-1.129240	-0.125488	0.784239	0.616087	-1.000000	-1.000000	-1.000000	-1.000000	-1.000000	-1.000000	-1.000000	29.793103	0.000000	-1.000000	-1.000000	103355.000000	1772914143.307869
-5279.580000	116683.155000	-13960.170000	-37691.370000	0.000000	0.000000	0.000000	0.000000	5.290232	-1.654680	-8.301710	-5.754114	0.000000	0.000000	-0.000000	0.000000	5.646200	0.503580	-1.129240	-0.125488	0.784239	0.616087	-1.000000	-1.000000	-1.000000	-1.000000	-1.000000	-1.000000	-1.000000	29.793103	0.000000	-1.000000	-1.000000	103356.000000	1772914143.311820
-5270.805000	116689.320000	-13953.195000	-37685.835000	0.000000	0.000000	0.000000	0.000000	4.936379	11.499455	-10.568510	-5.030337	0.000000	0.000000	-0.000000	0.000000	5.646200	0.503580	-1.129240	-0.125488	0.784239	0.616087	-1.000000	-1.000000	-1.000000	-1.000000	-1.000000	-1.000000	-1.000000	29.793103	0.000000	-1.000000	-1.000000	103357.000000	1772914143.311823
-5286.645000	116681.805000	-13958.190000	-37691.730000	0.000000	0.000000	0.000000	0.000000	2.887961	18.477526	-6.702503	-1.598307	0.000000	0.000000	-0.000000	0.000000	5.646200	0.503580	-1.129240	-0.125488	0.784239	0.616087	-1.000000	-1.000000	-1.000000	-1.000000	-1.000000	-1.000000	-1.000000	29.793103	0.000000	-1.000000	-1.000000	103358.000000	1772914143.315915
-5285.295000	116667.270000	-13957.110000	-37692.945000	0.000000	0.000000	0.000000	0.000000	0.023291	15.407416	0.515561	2.429574	0.000000	0.000000	-0.000000	0.000000	5.646200	0.503580	-1.129240	-0.125488	0.784239	0.616087	-1.000000	-1.000000	-1.000000	-1.000000	-1.000000	-1.000000	-1.000000	29.793103	0.000000	-1.000000	-1.000000	103359.000000	1772914143.315918
-5292.315000	116651.745000	-13959.315000	-37698.930000	0.000000	0.000000	0.000000	0.000000	-3.229615	3.834739	6.439439	4.373262	0.000000	0.000000	-0.000000	0.000000	5.646200	0.503580	-1.129240	-0.125488	0.784239	0.616087	-1.000000	-1.000000	-1.000000	-1.000000	-1.000000	-1.000000	-1.000000	29.793103	0.000000	-1.000000	-1.000000	103360.000000	1772914143.319855
-5292.090000	116646.255000	-13959.540000	-37703.205000	0.000000	0.000000	0.000000	0.000000	-5.510275	-9.929617	8.404399	3.460962	0.000000	0.000000	-0.000000	0.000000	5.646200	0.503580	-1.129240	-0.125488	0.784239	0.616087	-1.000000	-1.000000	-1.000000	-1.000000	-1.000000	-1.000000	-1.000000	29.793103	0.000000	-1.000000	-1.000000	103361.000000	1772914143.319859
-5291.730000	116652.420000	-13963.455000	-37705.815000	0.000000	0.000000	0.000000	0.000000	-5.510174	-18.276585	6.525838	0.877981	0.000000	0.000000	-0.000000	0.000000	7.965720	0.396760	-0.991900	-0.126098	0.784117	0.617430	-1.000000	-1.000000	-1.000000	-1.000000	-1.000000	-1.000000	-1.000000	29.793103	0.000000	-1.000000	-1.000000	103362.000000	1772914143.323825
-5289.615000	116667.315000	-13962.870000	-37696.140000	0.000000	0.000000	0.000000	0.000000	-3.036527	-16.568243	2.609596	-1.230005	0.000000	0.000000	-0.000000	0.000000	7.965720	0.396760	-0.991900	-0.126098	0.784117	0.617430	-1.000000	-1.000000	-1.000000	-1.000000	-1.000000	-1.000000	-1.000000	29.793103	0.000000	-1.000000	-1.000000	103363.000000	1772914143.323828
-5265.675000	116677.845000	-13944.555000	-37674.495000	0.000000	0.000000	0.000000	0.000000	1.200643	-5.859828	-0.800356	-0.785494	0.000000	0.000000	-0.000000	0.000000	7.965720	0.396760	-0.991900	-0.126098	0.784117	0.617430	-1.000000	-1.000000	-1.000000	-1.000000	-1.000000	-1.000000	-1.000000	29.793103	0.000000	-1.000000	-1.000000	103364.000000	1772914143.327794
-5269.680000	116685.540000	-13949.550000	-37678.905000	0.000000	0.000000	0.000000	0.000000	5.930987	7.700360	-1.736150	2.447274	0.000000	0.000000	-0.000000	0.000000	7.965720	0.396760	-0.991900	-0.126098	0.784117	0.617430	-1.000000	-1.000000	-1.000000	-1.000000	-1.000000	-1.000000	-1.000000	29.793103	0.000000	-1.000000	-1.000000	103365.000000	1772914143.327798
-5268.510000	116681.985000	-13953.420000	-37686.330000	0.000000	0.000000	0.000000	0.000000	8.743014	16.640918	-0.807511	5.466519	0.000000	0.000000	-0.000000	0.000000	7.965720	0.396760	-0.991900	-0.126098	0.784117	0.617430	-1.000000	-1.000000	-1.000000	-1.000000	-1.000000	-1.000000	-1.000000	29.793103	0.000000	-1.000000	-1.000000	103366.000000	1772914143.331846
-5283.270000	116668.530000	-13952.970000	-37687.950000	0.000000	0.000000	0.000000	0.000000	7.083597	16.372429	-0.368601	4.635550	0.000000	0.000000	-0.000000	0.000000	7.965720	0.396760	-0.991900	-0.126098	0.784117	0.617430	-1.000000	-1.000000	-1.000000	-1.000000	-1.000000	-1.000000	-1.000000	29.793103	0.000000	-1.000000	-1.000000	103367.000000	1772914143.331849
-5273.460000	116651.790000	-13939.065000	-37679.310000	0.000000	0.000000	0.000000	0.000000	1.162496	7.290838	-1.100420	0.069358	0.000000	0.000000	-0.000000	0.000000	7.965720	0.396760	-0.991900	-0.126098	0.784117	0.617430	-1.000000	-1.000000	-1.000000	-1.000000	-1.000000	-1.000000	-1.000000	29.793103	0.000000	-1.000000	-1.000000	103368.000000	1772914143.335783
-5284.170000	116640.675000	-13945.770000	-37688.490000	0.000000	0.000000	0.000000	0.000000	-5.528580	-5.647750	-1.697168	-4.777915	0.000000	0.000000	-0.000000	0.000000	7.965720	0.396760	-0.991900	-0.126098	0.784117	0.617430	-1.000000	-1.000000	-1.000000	-1.000000	-1.000000	-1.000000	-1.000000	29.793103	0.000000	-1.000000	-1.000000	103369.000000	1772914143.335787
-5284.260000	116643.555000	-13949.775000	-37690.335000	0.000000	0.000000	0.000000	0.000000	-9.337496	-15.420345	-1.667187	-7.231470	0.000000	0.000000	-0.000000	0.000000	7.965720	0.396760	-0.991900	-0.126098	0.784117	0.617430	-1.000000	-1.000000	-1.000000	-1.000000	-1.000000	-1.000000	-1.000000	29.793103	0.000000	-1.000000	-1.000000	103370.000000	1772914143.339878
-5273.505000	116660.295000	-13947.615000	-37683.180000	0.000000	0.000000	0.000000	0.000000	-8.760848	-16.489691	-1.730015	-6.752191	0.000000	0.000000	-0.000000	0.000000	7.965720	0.396760	-0.991900	-0.126098	0.784117	0.617430	-1.000000	-1.000000	-1.000000	-1.000000	-1.000000	-1.000000	-1.000000	29.793103	0.000000	-1.000000	-1.000000	103371.000000	1772914143.339880
-5256.405000	116679.645000	-13938.300000	-37668.060000	0.000000	0.000000	0.000000	0.000000	-3.943507	-7.883529	-1.750325	-3.467811	0.000000	0.000000	-0.000000	0.000000	7.950460	0.076300	-1.373400	-0.125427	0.785337	0.615721	-1.000000	-1.000000	-1.000000	-1.000000	-1.000000	-1.000000	-1.000000	29.793103	0.000000	-1.000000	-1.000000	103372.000000	1772914143.343849
-5239.305000	116695.845000	-13923.045000	-37651.005000	0.000000	0.000000	0.000000	0.000000	3.514098	5.913651	-0.540864	2.027028	0.000000	0.000000	-0.000000	0.000000	7.950460	0.076300	-1.373400	-0.125427	0.785337	0.615721	-1.000000	-1.000000	-1.000000	-1.000000	-1.000000	-1.000000	-1.000000	29.793103	0.000000	-1.000000	-1.000000	103373.000000	1772914143.343852
-5249.205000	116690.310000	-13932.315000	-37660.005000	0.000000	0.000000	0.000000	0.000000	9.982151	17.110002	1.980205	7.429378	0.000000	0.000000	-0.000000	0.000000	7.950460	0.076300	-1.373400	-0.125427	0.785337	0.615721	-1.000000	-1.000000	-1.000000	-1.000000	-1.000000	-1.000000	-1.000000	29.793103	0.000000	-1.000000	-1.000000	103374.000000	1772914143.347904
-5265.810000	116675.100000	-13941.855000	-37670.715000	0.000000	0.000000	0.000000	0.000000	10.861674	18.834249	3.521261	8.903963	0.000000	0.000000	-0.000000	0.000000	7.950460	0.076300	-1.373400	-0.125427	0.785337	0.615721	-1.000000	-1.000000	-1.000000	-1.000000	-1.000000	-1.000000	-1.000000	29.793103	0.000000	-1.000000	-1.000000	103375.000000	1772914143.347907
-5297.220000	116658.135000	-13966.470000	-37697.040000	0.000000	0.000000	0.000000	0.000000	3.925043	9.471256	1.469488	4.047358	0.000000	0.000000	-0.000000	0.000000	7.950460	0.076300	-1.373400	-0.125427	0.785337	0.615721	-1.000000	-1.000000	-1.000000	-1.000000	-1.000000	-1.000000	-1.000000	29.793103	0.000000	-1.000000	-1.000000	103376.000000	1772914143.352774
-5320.845000	116643.690000	-13986.990000	-37721.970000	0.000000	0.000000	0.000000	0.000000	-8.084273	-5.904295	-4.154062	-5.533565	0.000000	0.000000	-0.000000	0.000000	7.950460	0.076300	-1.373400	-0.125427	0.785337	0.615721	-1.000000	-1.000000	-1.000000	-1.000000	-1.000000	-1.000000	-1.000000	29.793103	0.000000	-1.000000	-1.000000	103377.000000	1772914143.352777
-5304.555000	116642.070000	-13969.800000	-37704.195000	0.000000	0.000000	0.000000	0.000000	-17.934379	-18.645744	-9.620062	-14.202916	0.000000	0.000000	-0.000000	0.000000	7.950460	0.076300	-1.373400	-0.125427	0.785337	0.615721	-1.000000	-1.000000	-1.000000	-1.000000	-1.000000	-1.000000	-1.000000	29.793103	0.000000	-1.000000	-1.000000	103378.000000	1772914143.355875
-5285.520000	116655.525000	-13960.170000	-37698.390000	0.000000	0.000000	0.000000	0.000000	-17.716253	-21.617419	-9.400802	-15.092850	0.000000	0.000000	-0.000000	0.000000	7.950460	0.076300	-1.373400	-0.125427	0.785337	0.615721	-1.000000	-1.000000	-1.000000	-1.000000	-1.000000	-1.000000	-1.000000	29.793103	0.000000	-1.000000	-1.000000	103379.000000	1772914143.355878
-5268.105000	116673.615000	-13954.905000	-37692.630000	0.000000	0.000000	0.000000	0.000000	-5.348535	-12.971294	-1.603289	-6.092343	0.000000	0.000000	-0.000000	0.000000	7.950460	0.076300	-1.373400	-0.125427	0.785337	0.615721	-1.000000	-1.000000	-1.000000	-1.000000	-1.000000	-1.000000	-1.000000	29.793103	0.000000	-1.000000	-1.000000	103380.000000	1772914143.362312
-5267.835000	116690.265000	-13954.410000	-37684.935000	0.000000	0.000000	0.000000	0.000000	12.259999	2.853070	9.140661	7.503848	0.000000	0.000000	-0.000000	0.000000	7.950460	0.076300	-1.373400	-0.125427	0.785337	0.615721	-1.000000	-1.000000	-1.000000	-1.000000	-1.000000	-1.000000	-1.000000	29.793103	0.000000	-1.000000	-1.000000	103381.000000	1772914143.362315
-5266.890000	116696.295000	-13947.660000	-37676.115000	0.000000	0.000000	0.000000	0.000000	24.153483	17.505881	15.948556	17.853915	0.000000	0.000000	-0.000000	0.000000	7.187460	0.076300	-1.098720	-0.124817	0.787901	0.614806	-1.000000	-1.000000	-1.000000	-1.000000	-1.000000	-1.000000	-1.000000	29.793103	0.000000	-1.000000	-1.000000	103382.000000	1772914143.363917
-5264.280000	116686.305000	-13947.480000	-37678.140000	0.000000	0.000000	0.000000	0.000000	23.709086	23.219600	15.338907	20.103455	0.000000	0.000000	-0.000000	0.000000	7.187460	0.076300	-1.098720	-0.124817	0.787901	0.614806	-1.000000	-1.000000	-1.000000	-1.000000	-1.000000	-1.000000	-1.000000	29.793103	0.000000	-1.000000	-1.000000	103383.000000	1772914143.363921
-5261.490000	116660.835000	-13941.495000	-37677.825000	0.000000	0.000000	0.000000	0.000000	12.589912	16.707913	8.567880	13.933195	0.000000	0.000000	-0.000000	0.000000	7.187460	0.076300	-1.098720	-0.124817	0.787901	0.614806	-1.000000	-1.000000	-1.000000	-1.000000	-1.000000	-1.000000	-1.000000	29.793103	0.000000	-1.000000	-1.000000	103384.000000	1772914143.370529
-5267.475000	116643.195000	-13943.430000	-37684.890000	0.000000	0.000000	0.000000	0.000000	-2.262546	0.940384	-0.459677	2.684142	0.000000	0.000000	-0.000000	0.000000	7.187460	0.076300	-1.098720	-0.124817	0.787901	0.614806	-1.000000	-1.000000	-1.000000	-1.000000	-1.000000	-1.000000	-1.000000	29.793103	0.000000	-1.000000	-1.000000	103385.000000	1772914143.370532
-5284.890000	116635.680000	-13950.765000	-37691.415000	0.000000	0.000000	0.000000	0.000000	-14.355199	-15.834496	-8.074665	-8.712927	0.000000	0.000000	-0.000000	0.000000	7.187460	0.076300	-1.098720	-0.124817	0.787901	0.614806	-1.000000	-1.000000	-1.000000	-1.000000	-1.000000	-1.000000	-1.000000	29.793103	0.000000	-1.000000	-1.000000	103386.000000	1772914143.371856
-5298.390000	116643.240000	-13952.970000	-37691.505000	0.000000	0.000000	0.000000	0.000000	-20.611815	-24.348692	-12.378577	-15.951109	0.000000	0.000000	-0.000000	0.000000	7.187460	0.076300	-1.098720	-0.124817	0.787901	0.614806	-1.000000	-1.000000	-1.000000	-1.000000	-1.000000	-1.000000	-1.000000	29.793103	0.000000	-1.000000	-1.000000	103387.000000	1772914143.371858
-5279.400000	116659.215000	-13951.440000	-37684.935000	0.000000	0.000000	0.000000	0.000000	-20.026361	-19.806502	-12.732370	-16.583099	0.000000	0.000000	-0.000000	0.000000	7.187460	0.076300	-1.098720	-0.124817	0.787901	0.614806	-1.000000	-1.000000	-1.000000	-1.000000	-1.000000	-1.000000	-1.000000	29.793103	0.000000	-1.000000	-1.000000	103388.000000	1772914143.375881
-5252.265000	116678.430000	-13933.305000	-37661.985000	0.000000	0.000000	0.000000	0.000000	-11.875942	-4.642397	-8.962157	-10.457182	0.000000	0.000000	-0.000000	0.000000	7.187460	0.076300	-1.098720	-0.124817	0.787901	0.614806	-1.000000	-1.000000	-1.000000	-1.000000	-1.000000	-1.000000	-1.000000	29.793103	0.000000	-1.000000	-1.000000	103389.000000	1772914143.375884
-5236.155000	116688.645000	-13921.740000	-37647.945000	0.000000	0.000000	0.000000	0.000000	2.270419	13.069536	-1.736634	0.112829	0.000000	0.000000	-0.000000	0.000000	7.187460	0.076300	-1.098720	-0.124817	0.787901	0.614806	-1.000000	-1.000000	-1.000000	-1.000000	-1.000000	-1.000000	-1.000000	29.793103	0.000000	-1.000000	-1.000000	103390.000000	1772914143.379784
-5258.070000	116684.730000	-13940.460000	-37669.545000	0.000000	0.000000	0.000000	0.000000	15.772191	24.058502	5.929488	9.933523	0.000000	0.000000	-0.000000	0.000000	7.187460	0.076300	-1.098720	-0.124817	0.787901	0.614806	-1.000000	-1.000000	-1.000000	-1.000000	-1.000000	-1.000000	-1.000000	29.793103	0.000000	-1.000000	-1.000000	103391.000000	1772914143.379787
-5287.950000	116668.485000	-13964.355000	-37697.805000	0.000000	0.000000	0.000000	0.000000	19.673995	22.627179	8.910546	12.425156	0.000000	0.000000	-0.000000	0.000000	5.356260	-0.732480	-1.434440	-0.125610	0.790342	0.614012	-1.000000	-1.000000	-1.000000	-1.000000	-1.000000	-1.000000	-1.000000	29.793103	0.000000	-1.000000	-1.000000	103392.000000	1772914143.383923
-5293.845000	116651.745000	-13962.960000	-37700.325000	0.000000	0.000000	0.000000	0.000000	10.713825	9.596132	4.758062	5.324790	0.000000	0.000000	-0.000000	0.000000	5.356260	-0.732480	-1.434440	-0.125610	0.790342	0.614012	-1.000000	-1.000000	-1.000000	-1.000000	-1.000000	-1.000000	-1.000000	29.793103	0.000000	-1.000000	-1.000000	103393.000000	1772914143.383926
-5292.045000	116633.025000	-13958.730000	-37698.480000	0.000000	0.000000	0.000000	0.000000	-4.330666	-8.215640	-2.519591	-5.611701	0.000000	0.000000	-0.000000	0.000000	5.356260	-0.732480	-1.434440	-0.125610	0.790342	0.614012	-1.000000	-1.000000	-1.000000	-1.000000	-1.000000	-1.000000	-1.000000	29.793103	0.000000	-1.000000	-1.000000	103394.000000	1772914143.388024
-5281.695000	116635.275000	-13957.695000	-37698.345000	0.000000	0.000000	0.000000	0.000000	-14.366429	-21.713520	-6.389068	-11.708919	0.000000	0.000000	-0.000000	0.000000	5.356260	-0.732480	-1.434440	-0.125610	0.790342	0.614012	-1.000000	-1.000000	-1.000000	-1.000000	-1.000000	-1.000000	-1.000000	29.793103	0.000000	-1.000000	-1.000000	103395.000000	1772914143.388028
-5279.355000	116649.495000	-13950.630000	-37684.395000	0.000000	0.000000	0.000000	0.000000	-13.396524	-23.979440	-4.194614	-9.004571	0.000000	0.000000	-0.000000	0.000000	5.356260	-0.732480	-1.434440	-0.125610	0.790342	0.614012	-1.000000	-1.000000	-1.000000	-1.000000	-1.000000	-1.000000	-1.000000	29.793103	0.000000	-1.000000	-1.000000	103396.000000	1772914143.391832
-5269.725000	116668.485000	-13942.710000	-37670.805000	0.000000	0.000000	0.000000	0.000000	-3.857395	-13.728653	1.884581	0.267667	0.000000	0.000000	-0.000000	0.000000	5.356260	-0.732480	-1.434440	-0.125610	0.790342	0.614012	-1.000000	-1.000000	-1.000000	-1.000000	-1.000000	-1.000000	-1.000000	29.793103	0.000000	-1.000000	-1.000000	103397.000000	1772914143.391835
-5259.780000	116684.370000	-13942.665000	-37666.980000	0.000000	0.000000	0.000000	0.000000	7.305668	3.666425	7.703208	10.471651	0.000000	0.000000	-0.000000	0.000000	5.356260	-0.732480	-1.434440	-0.125610	0.790342	0.614012	-1.000000	-1.000000	-1.000000	-1.000000	-1.000000	-1.000000	-1.000000	29.793103	0.000000	-1.000000	-1.000000	103398.000000	1772914143.395902
-5259.645000	116686.170000	-13941.270000	-37666.215000	0.000000	0.000000	0.000000	0.000000	13.989112	18.950732	9.771961	15.746712	0.000000	0.000000	-0.000000	0.000000	5.356260	-0.732480	-1.434440	-0.125610	0.790342	0.614012	-1.000000	-1.000000	-1.000000	-1.000000	-1.000000	-1.000000	-1.000000	29.793103	0.000000	-1.000000	-1.000000	103399.000000	1772914143.395904
-5259.870000	116673.210000	-13941.990000	-37671.930000	0.000000	0.000000	0.000000	0.000000	13.423949	24.007529	7.040958	13.129549	0.000000	0.000000	-0.000000	0.000000	5.356260	-0.732480	-1.434440	-0.125610	0.790342	0.614012	-1.000000	-1.000000	-1.000000	-1.000000	-1.000000	-1.000000	-1.000000	29.793103	0.000000	-1.000000	-1.000000	103400.000000	1772914143.399809
-5269.230000	116658.090000	-13943.835000	-37680.030000	0.000000	0.000000	0.000000	0.000000	6.466965	16.254189	1.192570	4.043989	0.000000	0.000000	-0.000000	0.000000	5.356260	-0.732480	-1.434440	-0.125610	0.790342	0.614012	-1.000000	-1.000000	-1.000000	-1.000000	-1.000000	-1.000000	-1.000000	29.793103	0.000000	-1.000000	-1.000000	103401.000000	1772914143.399812
-5277.600000	116645.265000	-13943.340000	-37682.730000	0.000000	0.000000	0.000000	0.000000	-3.381929	0.162978	-4.776955	-6.860122	0.000000	0.000000	-0.000000	0.000000	3.647140	-0.595140	-1.678600	-0.126587	0.791075	0.612791	-1.000000	-1.000000	-1.000000	-1.000000	-1.000000	-1.000000	-1.000000	29.793103	0.000000	-1.000000	-1.000000	103402.000000	1772914143.403912
-5281.875000	116642.655000	-13948.605000	-37687.905000	0.000000	0.000000	0.000000	0.000000	-11.718615	-15.364105	-8.369844	-14.370822	0.000000	0.000000	-0.000000	0.000000	3.647140	-0.595140	-1.678600	-0.126587	0.791075	0.612791	-1.000000	-1.000000	-1.000000	-1.000000	-1.000000	-1.000000	-1.000000	29.793103	0.000000	-1.000000	-1.000000	103403.000000	1772914143.403914
-5279.220000	116653.230000	-13956.570000	-37692.090000	0.000000	0.000000	0.000000	0.000000	-14.903851	-22.131019	-8.822079	-15.532789	0.000000	0.000000	-0.000000	0.000000	3.647140	-0.595140	-1.678600	-0.126587	0.791075	0.612791	-1.000000	-1.000000	-1.000000	-1.000000	-1.000000	-1.000000	-1.000000	29.793103	0.000000	-1.000000	-1.000000	103404.000000	1772914143.407801
-5278.635000	116671.590000	-13954.185000	-37679.175000	0.000000	0.000000	0.000000	0.000000	-11.658398	-16.926605	-6.823261	-10.559497	0.000000	0.000000	-0.000000	0.000000	3.647140	-0.595140	-1.678600	-0.126587	0.791075	0.612791	-1.000000	-1.000000	-1.000000	-1.000000	-1.000000	-1.000000	-1.000000	29.793103	0.000000	-1.000000	-1.000000	103405.000000	1772914143.407804
-5255.685000	116688.420000	-13942.710000	-37665.225000	0.000000	0.000000	0.000000	0.000000	-3.503984	-2.927750	-3.031182	-1.574514	0.000000	0.000000	-0.000000	0.000000	3.647140	-0.595140	-1.678600	-0.126587	0.791075	0.612791	-1.000000	-1.000000	-1.000000	-1.000000	-1.000000	-1.000000	-1.000000	29.793103	0.000000	-1.000000	-1.000000	103406.000000	1772914143.411830
-5252.130000	116696.565000	-13943.520000	-37667.160000	0.000000	0.000000	0.000000	0.000000	6.266179	12.165172	1.989409	7.969078	0.000000	0.000000	-0.000000	0.000000	3.647140	-0.595140	-1.678600	-0.126587	0.791075	0.612791	-1.000000	-1.000000	-1.000000	-1.000000	-1.000000	-1.000000	-1.000000	29.793103	0.000000	-1.000000	-1.000000	103407.000000	1772914143.411833
-5242.860000	116691.435000	-13930.200000	-37657.665000	0.000000	0.000000	0.000000	0.000000	13.514779	20.289923	6.706686	13.809707	0.000000	0.000000	-0.000000	0.000000	3.647140	-0.595140	-1.678600	-0.126587	0.791075	0.612791	-1.000000	-1.000000	-1.000000	-1.000000	-1.000000	-1.000000	-1.000000	29.793103	0.000000	-1.000000	-1.000000	103408.000000	1772914143.415793
-5259.780000	116677.260000	-13925.745000	-37656.765000	0.000000	0.000000	0.000000	0.000000	14.552962	17.254186	9.279756	13.478774	0.000000	0.000000	-0.000000	0.000000	3.647140	-0.595140	-1.678600	-0.126587	0.791075	0.612791	-1.000000	-1.000000	-1.000000	-1.000000	-1.000000	-1.000000	-1.000000	29.793103	0.000000	-1.000000	-1.000000	103409.000000	1772914143.415797
-5290.785000	116661.780000	-13936.770000	-37672.155000	0.000000	0.000000	0.000000	0.000000	7.841648	4.845422	8.476496	7.571369	0.000000	0.000000	-0.000000	0.000000	3.647140	-0.595140	-1.678600	-0.126587	0.791075	0.612791	-1.000000	-1.000000	-1.000000	-1.000000	-1.000000	-1.000000	-1.000000	29.793103	0.000000	-1.000000	-1.000000	103410.000000	1772914143.419984
-5312.070000	116654.670000	-13962.465000	-37698.885000	0.000000	0.000000	0.000000	0.000000	-4.615621	-10.191871	3.496667	-1.844891	0.000000	0.000000	-0.000000	0.000000	3.647140	-0.595140	-1.678600	-0.126587	0.791075	0.612791	-1.000000	-1.000000	-1.000000	-1.000000	-1.000000	-1.000000	-1.000000	29.793103	0.000000	-1.000000	-1.000000	103411.000000	1772914143.419987
-5285.745000	116662.680000	-13962.015000	-37694.205000	0.000000	0.000000	0.000000	0.000000	-16.077646	-19.716483	-4.646052	-11.489190	0.000000	0.000000	-0.000000	0.000000	2.304260	-0.289940	-0.473060	-0.125976	0.789366	0.612364	-1.000000	-1.000000	-1.000000	-1.000000	-1.000000	-1.000000	-1.000000	29.793103	0.000000	-1.000000	-1.000000	103412.000000	1772914143.423822
-5259.465000	116681.220000	-13948.020000	-37672.470000	0.000000	0.000000	0.000000	0.000000	-17.743465	-18.476428	-11.348151	-16.025824	0.000000	0.000000	-0.000000	0.000000	2.304260	-0.289940	-0.473060	-0.125976	0.789366	0.612364	-1.000000	-1.000000	-1.000000	-1.000000	-1.000000	-1.000000	-1.000000	29.793103	0.000000	-1.000000	-1.000000	103413.000000	1772914143.423825
-5248.665000	116689.905000	-13945.770000	-37664.460000	0.000000	0.000000	0.000000	0.000000	-6.750721	-7.231067	-11.407994	-11.350714	0.000000	0.000000	-0.000000	0.000000	2.304260	-0.289940	-0.473060	-0.125976	0.789366	0.612364	-1.000000	-1.000000	-1.000000	-1.000000	-1.000000	-1.000000	-1.000000	29.793103	0.000000	-1.000000	-1.000000	103414.000000	1772914143.427866
-5253.615000	116698.455000	-13957.830000	-37676.475000	0.000000	0.000000	0.000000	0.000000	9.475610	7.406782	-4.827908	-0.025732	0.000000	0.000000	-0.000000	0.000000	2.304260	-0.289940	-0.473060	-0.125976	0.789366	0.612364	-1.000000	-1.000000	-1.000000	-1.000000	-1.000000	-1.000000	-1.000000	29.793103	0.000000	-1.000000	-1.000000	103415.000000	1772914143.427869
-5286.645000	116696.070000	-13956.480000	-37680.345000	0.000000	0.000000	0.000000	0.000000	18.899744	17.220451	3.094059	9.883563	0.000000	0.000000	-0.000000	0.000000	2.304260	-0.289940	-0.473060	-0.125976	0.789366	0.612364	-1.000000	-1.000000	-1.000000	-1.000000	-1.000000	-1.000000	-1.000000	29.793103	0.000000	-1.000000	-1.000000	103416.000000	1772914143.431897
-5286.105000	116684.235000	-13946.130000	-37677.240000	0.000000	0.000000	0.000000	0.000000	14.911471	17.335462	7.774991	12.502953	0.000000	0.000000	-0.000000	0.000000	2.304260	-0.289940	-0.473060	-0.125976	0.789366	0.612364	-1.000000	-1.000000	-1.000000	-1.000000	-1.000000	-1.000000	-1.000000	29.793103	0.000000	-1.000000	-1.000000	103417.000000	1772914143.431900
-5273.190000	116667.990000	-13938.615000	-37674.585000	0.000000	0.000000	0.000000	0.000000	1.950334	8.261507	8.766598	8.518034	0.000000	0.000000	-0.000000	0.000000	2.304260	-0.289940	-0.473060	-0.125976	0.789366	0.612364	-1.000000	-1.000000	-1.000000	-1.000000	-1.000000	-1.000000	-1.000000	29.793103	0.000000	-1.000000	-1.000000	103418.000000	1772914143.435856
-5275.485000	116656.605000	-13935.510000	-37672.875000	0.000000	0.000000	0.000000	0.000000	-9.302702	-4.924153	7.539028	2.336690	0.000000	0.000000	-0.000000	0.000000	2.304260	-0.289940	-0.473060	-0.125976	0.789366	0.612364	-1.000000	-1.000000	-1.000000	-1.000000	-1.000000	-1.000000	-1.000000	29.793103	0.000000	-1.000000	-1.000000	103419.000000	1772914143.435860
-5286.645000	116658.270000	-13949.640000	-37683.225000	0.000000	0.000000	0.000000	0.000000	-12.500773	-15.171995	4.631568	-2.576666	0.000000	0.000000	-0.000000	0.000000	2.304260	-0.289940	-0.473060	-0.125976	0.789366	0.612364	-1.000000	-1.000000	-1.000000	-1.000000	-1.000000	-1.000000	-1.000000	29.793103	0.000000	-1.000000	-1.000000	103420.000000	1772914143.439848
-5281.290000	116673.930000	-13955.670000	-37684.125000	0.000000	0.000000	0.000000	0.000000	-8.969465	-16.877467	-0.207769	-5.307917	0.000000	0.000000	-0.000000	0.000000	2.304260	-0.289940	-0.473060	-0.125976	0.789366	0.612364	-1.000000	-1.000000	-1.000000	-1.000000	-1.000000	-1.000000	-1.000000	29.793103	0.000000	-1.000000	-1.000000	103421.000000	1772914143.439851
-5267.475000	116692.020000	-13951.440000	-37674.720000	0.000000	0.000000	0.000000	0.000000	-2.558553	-8.857140	-5.775382	-5.858842	0.000000	0.000000	-0.000000	0.000000	2.563680	0.045780	-1.144500	-0.124389	0.789549	0.612486	-1.000000	-1.000000	-1.000000	-1.000000	-1.000000	-1.000000	-1.000000	29.793103	0.000000	-1.000000	-1.000000	103422.000000	1772914143.443838
-5266.260000	116704.935000	-13950.270000	-37666.215000	0.000000	0.000000	0.000000	0.000000	3.988596	4.633220	-9.017121	-3.867033	0.000000	0.000000	-0.000000	0.000000	2.563680	0.045780	-1.144500	-0.124389	0.789549	0.612486	-1.000000	-1.000000	-1.000000	-1.000000	-1.000000	-1.000000	-1.000000	29.793103	0.000000	-1.000000	-1.000000	103423.000000	1772914143.443840
-5247.495000	116699.760000	-13944.915000	-37665.180000	0.000000	0.000000	0.000000	0.000000	8.647452	15.909527	-7.829919	0.124287	0.000000	0.000000	-0.000000	0.000000	2.563680	0.045780	-1.144500	-0.124389	0.789549	0.612486	-1.000000	-1.000000	-1.000000	-1.000000	-1.000000	-1.000000	-1.000000	29.793103	0.000000	-1.000000	-1.000000	103424.000000	1772914143.449328
-5260.185000	116683.560000	-13934.565000	-37661.715000	0.000000	0.000000	0.000000	0.000000	9.821806	18.147459	-2.893745	3.866869	0.000000	0.000000	-0.000000	0.000000	2.563680	0.045780	-1.144500	-0.124389	0.789549	0.612486	-1.000000	-1.000000	-1.000000	-1.000000	-1.000000	-1.000000	-1.000000	29.793103	0.000000	-1.000000	-1.000000	103425.000000	1772914143.449331
-5278.320000	116664.885000	-13939.335000	-37672.920000	0.000000	0.000000	0.000000	0.000000	6.342820	9.630445	3.049475	4.925117	0.000000	0.000000	-0.000000	0.000000	2.563680	0.045780	-1.144500	-0.124389	0.789549	0.612486	-1.000000	-1.000000	-1.000000	-1.000000	-1.000000	-1.000000	-1.000000	29.793103	0.000000	-1.000000	-1.000000	103426.000000	1772914143.451811
-5292.945000	116653.275000	-13954.455000	-37687.185000	0.000000	0.000000	0.000000	0.000000	-1.564907	-4.863453	6.409259	2.245878	0.000000	0.000000	-0.000000	0.000000	2.563680	0.045780	-1.144500	-0.124389	0.789549	0.612486	-1.000000	-1.000000	-1.000000	-1.000000	-1.000000	-1.000000	-1.000000	29.793103	0.000000	-1.000000	-1.000000	103427.000000	1772914143.451813
-5298.930000	116650.170000	-13971.420000	-37701.990000	0.000000	0.000000	0.000000	0.000000	-10.456030	-16.944716	4.687862	-3.190567	0.000000	0.000000	-0.000000	0.000000	2.563680	0.045780	-1.144500	-0.124389	0.789549	0.612486	-1.000000	-1.000000	-1.000000	-1.000000	-1.000000	-1.000000	-1.000000	29.793103	0.000000	-1.000000	-1.000000	103428.000000	1772914143.458296
-5287.815000	116661.060000	-13965.930000	-37692.765000	0.000000	0.000000	0.000000	0.000000	-14.813620	-19.743077	-0.920629	-8.153555	0.000000	0.000000	-0.000000	0.000000	2.563680	0.045780	-1.144500	-0.124389	0.789549	0.612486	-1.000000	-1.000000	-1.000000	-1.000000	-1.000000	-1.000000	-1.000000	29.793103	0.000000	-1.000000	-1.000000	103429.000000	1772914143.458298
-5278.770000	116679.195000	-13957.425000	-37679.355000	0.000000	0.000000	0.000000	0.000000	-11.054213	-11.641098	-5.571762	-8.475773	0.000000	0.000000	-0.000000	0.000000	2.563680	0.045780	-1.144500	-0.124389	0.789549	0.612486	-1.000000	-1.000000	-1.000000	-1.000000	-1.000000	-1.000000	-1.000000	29.793103	0.000000	-1.000000	-1.000000	103430.000000	1772914143.461404
-5267.475000	116697.195000	-13952.970000	-37673.190000	0.000000	0.000000	0.000000	0.000000	-0.612498	3.185624	-5.072615	-2.585641	0.000000	0.000000	-0.000000	0.000000	2.563680	0.045780	-1.144500	-0.124389	0.789549	0.612486	-1.000000	-1.000000	-1.000000	-1.000000	-1.000000	-1.000000	-1.000000	29.793103	0.000000	-1.000000	-1.000000	103431.000000	1772914143.461407
-5247.990000	116703.495000	-13939.020000	-37659.645000	0.000000	0.000000	0.000000	0.000000	11.027423	17.041018	0.308083	6.385605	0.000000	0.000000	-0.000000	0.000000	1.617560	-0.488320	-1.129240	-0.124023	0.789732	0.611815	-1.000000	-1.000000	-1.000000	-1.000000	-1.000000	-1.000000	-1.000000	29.793103	0.000000	-1.000000	-1.000000	103432.000000	1772914143.464698
-5242.140000	116698.275000	-13923.855000	-37646.415000	0.000000	0.000000	0.000000	0.000000	18.194871	22.603896	7.010998	13.270013	0.000000	0.000000	-0.000000	0.000000	1.617560	-0.488320	-1.129240	-0.124023	0.789732	0.611815	-1.000000	-1.000000	-1.000000	-1.000000	-1.000000	-1.000000	-1.000000	29.793103	0.000000	-1.000000	-1.000000	103433.000000	1772914143.464701
-5266.980000	116673.480000	-13933.935000	-37662.615000	0.000000	0.000000	0.000000	0.000000	17.180981	16.572930	10.976505	14.270197	0.000000	0.000000	-0.000000	0.000000	1.617560	-0.488320	-1.129240	-0.124023	0.789732	0.611815	-1.000000	-1.000000	-1.000000	-1.000000	-1.000000	-1.000000	-1.000000	29.793103	0.000000	-1.000000	-1.000000	103434.000000	1772914143.469601
-5288.895000	116656.380000	-13950.990000	-37682.100000	0.000000	0.000000	0.000000	0.000000	7.050125	1.433570	8.966211	7.849912	0.000000	0.000000	-0.000000	0.000000	1.617560	-0.488320	-1.129240	-0.124023	0.789732	0.611815	-1.000000	-1.000000	-1.000000	-1.000000	-1.000000	-1.000000	-1.000000	29.793103	0.000000	-1.000000	-1.000000	103435.000000	1772914143.469604
-5270.355000	116652.285000	-13933.125000	-37663.605000	0.000000	0.000000	0.000000	0.000000	-7.824792	-15.151650	1.151905	-3.530435	0.000000	0.000000	-0.000000	0.000000	1.617560	-0.488320	-1.129240	-0.124023	0.789732	0.611815	-1.000000	-1.000000	-1.000000	-1.000000	-1.000000	-1.000000	-1.000000	29.793103	0.000000	-1.000000	-1.000000	103436.000000	1772914143.471846
-5260.950000	116661.735000	-13924.665000	-37653.615000	0.000000	0.000000	0.000000	0.000000	-18.197242	-24.007967	-7.203827	-12.799818	0.000000	0.000000	-0.000000	0.000000	1.617560	-0.488320	-1.129240	-0.124023	0.789732	0.611815	-1.000000	-1.000000	-1.000000	-1.000000	-1.000000	-1.000000	-1.000000	29.793103	0.000000	-1.000000	-1.000000	103437.000000	1772914143.471849
-5255.460000	116676.810000	-13923.630000	-37648.665000	0.000000	0.000000	0.000000	0.000000	-17.524788	-20.068997	-10.451942	-13.994130	0.000000	0.000000	-0.000000	0.000000	1.617560	-0.488320	-1.129240	-0.124023	0.789732	0.611815	-1.000000	-1.000000	-1.000000	-1.000000	-1.000000	-1.000000	-1.000000	29.793103	0.000000	-1.000000	-1.000000	103438.000000	1772914143.475795
-5266.575000	116689.680000	-13947.930000	-37664.865000	0.000000	0.000000	0.000000	0.000000	-8.046589	-5.710928	-8.469251	-8.159793	0.000000	0.000000	-0.000000	0.000000	1.617560	-0.488320	-1.129240	-0.124023	0.789732	0.611815	-1.000000	-1.000000	-1.000000	-1.000000	-1.000000	-1.000000	-1.000000	29.793103	0.000000	-1.000000	-1.000000	103439.000000	1772914143.475797
-5246.145000	116700.210000	-13937.490000	-37651.860000	0.000000	0.000000	0.000000	0.000000	2.808099	10.972506	-5.140656	-1.020040	0.000000	0.000000	-0.000000	0.000000	1.617560	-0.488320	-1.129240	-0.124023	0.789732	0.611815	-1.000000	-1.000000	-1.000000	-1.000000	-1.000000	-1.000000	-1.000000	29.793103	0.000000	-1.000000	-1.000000	103440.000000	1772914143.479819
-5257.620000	116695.845000	-13943.070000	-37659.870000	0.000000	0.000000	0.000000	0.000000	9.520665	21.226918	-2.624959	3.388928	0.000000	0.000000	-0.000000	0.000000	1.617560	-0.488320	-1.129240	-0.124023	0.789732	0.611815	-1.000000	-1.000000	-1.000000	-1.000000	-1.000000	-1.000000	-1.000000	29.793103	0.000000	-1.000000	-1.000000	103441.000000	1772914143.479822
-5278.185000	116681.850000	-13943.340000	-37667.745000	0.000000	0.000000	0.000000	0.000000	9.981279	20.165526	-0.401119	4.338076	0.000000	0.000000	-0.000000	0.000000	1.709120	-0.167860	-1.297100	-0.125122	0.789549	0.613280	-1.000000	-1.000000	-1.000000	-1.000000	-1.000000	-1.000000	-1.000000	29.793103	0.000000	-1.000000	-1.000000	103442.000000	1772914143.484631
-5285.880000	116668.530000	-13945.500000	-37674.090000	0.000000	0.000000	0.000000	0.000000	4.476394	8.840315	1.926561	2.550394	0.000000	0.000000	-0.000000	0.000000	1.709120	-0.167860	-1.297100	-0.125122	0.789549	0.613280	-1.000000	-1.000000	-1.000000	-1.000000	-1.000000	-1.000000	-1.000000	29.793103	0.000000	-1.000000	-1.000000	103443.000000	1772914143.484634
-5270.175000	116652.330000	-13942.575000	-37672.245000	0.000000	0.000000	0.000000	0.000000	-3.055021	-6.567780	3.955067	-0.202199	0.000000	0.000000	-0.000000	0.000000	1.709120	-0.167860	-1.297100	-0.125122	0.789549	0.613280	-1.000000	-1.000000	-1.000000	-1.000000	-1.000000	-1.000000	-1.000000	29.793103	0.000000	-1.000000	-1.000000	103444.000000	1772914143.487790
-5248.530000	116649.810000	-13943.970000	-37670.760000	0.000000	0.000000	0.000000	0.000000	-6.338145	-18.226832	5.190364	-1.595077	0.000000	0.000000	-0.000000	0.000000	1.709120	-0.167860	-1.297100	-0.125122	0.789549	0.613280	-1.000000	-1.000000	-1.000000	-1.000000	-1.000000	-1.000000	-1.000000	29.793103	0.000000	-1.000000	-1.000000	103445.000000	1772914143.487793
-5252.355000	116661.510000	-13943.205000	-37665.270000	0.000000	0.000000	0.000000	0.000000	-2.609365	-20.450429	5.247091	-0.440779	0.000000	0.000000	-0.000000	0.000000	1.709120	-0.167860	-1.297100	-0.125122	0.789549	0.613280	-1.000000	-1.000000	-1.000000	-1.000000	-1.000000	-1.000000	-1.000000	29.793103	0.000000	-1.000000	-1.000000	103446.000000	1772914143.491837
-5258.205000	116679.735000	-13941.675000	-37657.035000	0.000000	0.000000	0.000000	0.000000	4.108870	-12.071817	4.071395	2.584599	0.000000	0.000000	-0.000000	0.000000	1.709120	-0.167860	-1.297100	-0.125122	0.789549	0.613280	-1.000000	-1.000000	-1.000000	-1.000000	-1.000000	-1.000000	-1.000000	29.793103	0.000000	-1.000000	-1.000000	103447.000000	1772914143.491840
-5228.955000	116694.495000	-13925.115000	-37639.755000	0.000000	0.000000	0.000000	0.000000	7.968044	2.802940	2.404292	5.885700	0.000000	0.000000	-0.000000	0.000000	1.709120	-0.167860	-1.297100	-0.125122	0.789549	0.613280	-1.000000	-1.000000	-1.000000	-1.000000	-1.000000	-1.000000	-1.000000	29.793103	0.000000	-1.000000	-1.000000	103448.000000	1772914143.495819
-5232.420000	116696.745000	-13916.970000	-37634.175000	0.000000	0.000000	0.000000	0.000000	7.464162	16.464665	1.496594	7.945945	0.000000	0.000000	-0.000000	0.000000	1.709120	-0.167860	-1.297100	-0.125122	0.789549	0.613280	-1.000000	-1.000000	-1.000000	-1.000000	-1.000000	-1.000000	-1.000000	29.793103	0.000000	-1.000000	-1.000000	103449.000000	1772914143.495822
-5240.520000	116685.810000	-13914.945000	-37638.585000	0.000000	0.000000	0.000000	0.000000	3.843644	21.549663	1.520695	7.258948	0.000000	0.000000	-0.000000	0.000000	1.709120	-0.167860	-1.297100	-0.125122	0.789549	0.613280	-1.000000	-1.000000	-1.000000	-1.000000	-1.000000	-1.000000	-1.000000	29.793103	0.000000	-1.000000	-1.000000	103450.000000	1772914143.499732
-5278.095000	116668.035000	-13936.680000	-37665.090000	0.000000	0.000000	0.000000	0.000000	-2.554567	15.160648	0.659813	2.444953	0.000000	0.000000	-0.000000	0.000000	1.709120	-0.167860	-1.297100	-0.125122	0.789549	0.613280	-1.000000	-1.000000	-1.000000	-1.000000	-1.000000	-1.000000	-1.000000	29.793103	0.000000	-1.000000	-1.000000	103451.000000	1772914143.499735
-5294.970000	116653.185000	-13960.305000	-37690.875000	0.000000	0.000000	0.000000	0.000000	-11.068025	0.662225	-3.288009	-6.372885	0.000000	0.000000	-0.000000	0.000000	0.228900	-0.930860	-1.648080	-0.126709	0.794004	0.614439	-1.000000	-1.000000	-1.000000	-1.000000	-1.000000	-1.000000	-1.000000	29.793103	0.000000	-1.000000	-1.000000	103452.000000	1772914143.503796
-5304.915000	116652.060000	-13966.020000	-37694.565000	0.000000	0.000000	0.000000	0.000000	-18.052266	-14.031023	-9.691015	-15.750729	0.000000	0.000000	-0.000000	0.000000	0.228900	-0.930860	-1.648080	-0.126709	0.794004	0.614439	-1.000000	-1.000000	-1.000000	-1.000000	-1.000000	-1.000000	-1.000000	29.793103	0.000000	-1.000000	-1.000000	103453.000000	1772914143.503799
-5281.515000	116654.895000	-13953.780000	-37678.230000	0.000000	0.000000	0.000000	0.000000	-17.846845	-20.945547	-13.842840	-19.351852	0.000000	0.000000	-0.000000	0.000000	0.228900	-0.930860	-1.648080	-0.126709	0.794004	0.614439	-1.000000	-1.000000	-1.000000	-1.000000	-1.000000	-1.000000	-1.000000	29.793103	0.000000	-1.000000	-1.000000	103454.000000	1772914143.507776
-5271.705000	116671.095000	-13951.755000	-37670.220000	0.000000	0.000000	0.000000	0.000000	-7.545921	-16.655380	-10.879182	-12.717469	0.000000	0.000000	-0.000000	0.000000	0.228900	-0.930860	-1.648080	-0.126709	0.794004	0.614439	-1.000000	-1.000000	-1.000000	-1.000000	-1.000000	-1.000000	-1.000000	29.793103	0.000000	-1.000000	-1.000000	103455.000000	1772914143.507778
-5264.955000	116690.265000	-13951.440000	-37665.720000	0.000000	0.000000	0.000000	0.000000	8.901328	-3.739224	-1.237365	1.669237	0.000000	0.000000	-0.000000	0.000000	0.228900	-0.930860	-1.648080	-0.126709	0.794004	0.614439	-1.000000	-1.000000	-1.000000	-1.000000	-1.000000	-1.000000	-1.000000	29.793103	0.000000	-1.000000	-1.000000	103456.000000	1772914143.511789
-5256.405000	116698.770000	-13943.430000	-37658.970000	0.000000	0.000000	0.000000	0.000000	22.607666	11.063350	9.549926	15.731459	0.000000	0.000000	-0.000000	0.000000	0.228900	-0.930860	-1.648080	-0.126709	0.794004	0.614439	-1.000000	-1.000000	-1.000000	-1.000000	-1.000000	-1.000000	-1.000000	29.793103	0.000000	-1.000000	-1.000000	103457.000000	1772914143.511793
-5249.610000	116690.670000	-13929.840000	-37650.375000	0.000000	0.000000	0.000000	0.000000	26.534610	20.004493	16.130019	22.302772	0.000000	0.000000	-0.000000	0.000000	0.228900	-0.930860	-1.648080	-0.126709	0.794004	0.614439	-1.000000	-1.000000	-1.000000	-1.000000	-1.000000	-1.000000	-1.000000	29.793103	0.000000	-1.000000	-1.000000	103458.000000	1772914143.515796
-5257.530000	116675.730000	-13929.345000	-37655.955000	0.000000	0.000000	0.000000	0.000000	19.554287	18.112605	16.523098	19.283760	0.000000	0.000000	-0.000000	0.000000	0.228900	-0.930860	-1.648080	-0.126709	0.794004	0.614439	-1.000000	-1.000000	-1.000000	-1.000000	-1.000000	-1.000000	-1.000000	29.793103	0.000000	-1.000000	-1.000000	103459.000000	1772914143.515798
-5269.950000	116660.475000	-13937.355000	-37668.420000	0.000000	0.000000	0.000000	0.000000	5.269308	6.295802	11.154181	8.859385	0.000000	0.000000	-0.000000	0.000000	0.228900	-0.930860	-1.648080	-0.126709	0.794004	0.614439	-1.000000	-1.000000	-1.000000	-1.000000	-1.000000	-1.000000	-1.000000	29.793103	0.000000	-1.000000	-1.000000	103460.000000	1772914143.519838
-5278.320000	116656.290000	-13948.020000	-37676.745000	0.000000	0.000000	0.000000	0.000000	-10.426617	-8.813888	1.710937	-4.518392	0.000000	0.000000	-0.000000	0.000000	0.228900	-0.930860	-1.648080	-0.126709	0.794004	0.614439	-1.000000	-1.000000	-1.000000	-1.000000	-1.000000	-1.000000	-1.000000	29.793103	0.000000	-1.000000	-1.000000	103461.000000	1772914143.519841
-5270.850000	116661.735000	-13948.605000	-37673.460000	0.000000	0.000000	0.000000	0.000000	-21.121304	-18.718776	-8.494694	-15.287490	0.000000	0.000000	-0.000000	0.000000	0.076300	-1.526000	-0.763000	-0.126770	0.789915	0.614317	-1.000000	-1.000000	-1.000000	-1.000000	-1.000000	-1.000000	-1.000000	29.793103	0.000000	-1.000000	-1.000000	103462.000000	1772914143.523739
-5253.075000	116678.430000	-13939.875000	-37660.860000	0.000000	0.000000	0.000000	0.000000	-22.069230	-18.048667	-14.910050	-18.574943	0.000000	0.000000	-0.000000	0.000000	0.076300	-1.526000	-0.763000	-0.126770	0.789915	0.614317	-1.000000	-1.000000	-1.000000	-1.000000	-1.000000	-1.000000	-1.000000	29.793103	0.000000	-1.000000	-1.000000	103463.000000	1772914143.523742
-5254.605000	116687.655000	-13930.560000	-37646.775000	0.000000	0.000000	0.000000	0.000000	-13.203762	-7.602557	-14.229812	-12.903144	0.000000	0.000000	-0.000000	0.000000	0.076300	-1.526000	-0.763000	-0.126770	0.789915	0.614317	-1.000000	-1.000000	-1.000000	-1.000000	-1.000000	-1.000000	-1.000000	29.793103	0.000000	-1.000000	-1.000000	103464.000000	1772914143.527790
-5251.590000	116694.855000	-13931.190000	-37646.865000	0.000000	0.000000	0.000000	0.000000	-0.132857	6.276809	-7.181112	-1.715303	0.000000	0.000000	-0.000000	0.000000	0.076300	-1.526000	-0.763000	-0.126770	0.789915	0.614317	-1.000000	-1.000000	-1.000000	-1.000000	-1.000000	-1.000000	-1.000000	29.793103	0.000000	-1.000000	-1.000000	103465.000000	1772914143.527792
-5248.395000	116692.785000	-13928.265000	-37647.090000	0.000000	0.000000	0.000000	0.000000	9.860414	15.766972	1.681734	8.348404	0.000000	0.000000	-0.000000	0.000000	0.076300	-1.526000	-0.763000	-0.126770	0.789915	0.614317	-1.000000	-1.000000	-1.000000	-1.000000	-1.000000	-1.000000	-1.000000	29.793103	0.000000	-1.000000	-1.000000	103466.000000	1772914143.531769
-5265.810000	116679.690000	-13929.570000	-37653.705000	0.000000	0.000000	0.000000	0.000000	12.628202	16.110227	7.513871	11.905469	0.000000	0.000000	-0.000000	0.000000	0.076300	-1.526000	-0.763000	-0.126770	0.789915	0.614317	-1.000000	-1.000000	-1.000000	-1.000000	-1.000000	-1.000000	-1.000000	29.793103	0.000000	-1.000000	-1.000000	103467.000000	1772914143.531771
-5275.305000	116662.545000	-13931.280000	-37659.870000	0.000000	0.000000	0.000000	0.000000	8.122440	7.611431	8.249320	8.122203	0.000000	0.000000	-0.000000	0.000000	0.076300	-1.526000	-0.763000	-0.126770	0.789915	0.614317	-1.000000	-1.000000	-1.000000	-1.000000	-1.000000	-1.000000	-1.000000	29.793103	0.000000	-1.000000	-1.000000	103468.000000	1772914143.535758
-5261.715000	116654.355000	-13930.695000	-37659.690000	0.000000	0.000000	0.000000	0.000000	0.095821	-4.913360	4.920291	0.435294	0.000000	0.000000	-0.000000	0.000000	0.076300	-1.526000	-0.763000	-0.126770	0.789915	0.614317	-1.000000	-1.000000	-1.000000	-1.000000	-1.000000	-1.000000	-1.000000	29.793103	0.000000	-1.000000	-1.000000	103469.000000	1772914143.535761
-5260.005000	116657.235000	-13934.385000	-37660.500000	0.000000	0.000000	0.000000	0.000000	-5.558361	-14.483292	0.212114	-6.140593	0.000000	0.000000	-0.000000	0.000000	0.076300	-1.526000	-0.763000	-0.126770	0.789915	0.614317	-1.000000	-1.000000	-1.000000	-1.000000	-1.000000	-1.000000	-1.000000	29.793103	0.000000	-1.000000	-1.000000	103470.000000	1772914143.539788
-5271.345000	116671.185000	-13945.230000	-37665.225000	0.000000	0.000000	0.000000	0.000000	-5.772617	-15.633609	-3.586367	-8.328052	0.000000	0.000000	-0.000000	0.000000	0.076300	-1.526000	-0.763000	-0.126770	0.789915	0.614317	-1.000000	-1.000000	-1.000000	-1.000000	-1.000000	-1.000000	-1.000000	29.793103	0.000000	-1.000000	-1.000000	103471.000000	1772914143.539791
-5273.145000	116689.770000	-13958.415000	-37672.965000	0.000000	0.000000	0.000000	0.000000	-2.601492	-7.564205	-5.750885	-6.291918	0.000000	0.000000	-0.000000	0.000000	0.701960	-0.915600	-0.579880	-0.125732	0.784605	0.615355	-1.000000	-1.000000	-1.000000	-1.000000	-1.000000	-1.000000	-1.000000	29.793103	0.000000	-1.000000	-1.000000	103472.000000	1772914143.543803
-5240.520000	116705.835000	-13933.755000	-37644.660000	0.000000	0.000000	0.000000	0.000000	1.119015	5.386460	-5.832228	-1.843353	0.000000	0.000000	-0.000000	0.000000	0.701960	-0.915600	-0.579880	-0.125732	0.784605	0.615355	-1.000000	-1.000000	-1.000000	-1.000000	-1.000000	-1.000000	-1.000000	29.793103	0.000000	-1.000000	-1.000000	103473.000000	1772914143.543806
-5244.480000	116700.615000	-13934.655000	-37643.805000	0.000000	0.000000	0.000000	0.000000	4.870542	15.975164	-2.675965	3.807684	0.000000	0.000000	-0.000000	0.000000	0.701960	-0.915600	-0.579880	-0.125732	0.784605	0.615355	-1.000000	-1.000000	-1.000000	-1.000000	-1.000000	-1.000000	-1.000000	29.793103	0.000000	-1.000000	-1.000000	103474.000000	1772914143.547755
-5256.360000	116688.780000	-13932.630000	-37645.695000	0.000000	0.000000	0.000000	0.000000	7.373643	17.814146	3.019775	8.723874	0.000000	0.000000	-0.000000	0.000000	0.701960	-0.915600	-0.579880	-0.125732	0.784605	0.615355	-1.000000	-1.000000	-1.000000	-1.000000	-1.000000	-1.000000	-1.000000	29.793103	0.000000	-1.000000	-1.000000	103475.000000	1772914143.547757
-5248.845000	116674.785000	-13914.315000	-37634.265000	0.000000	0.000000	0.000000	0.000000	5.999472	9.364596	8.035290	10.002135	0.000000	0.000000	-0.000000	0.000000	0.701960	-0.915600	-0.579880	-0.125732	0.784605	0.615355	-1.000000	-1.000000	-1.000000	-1.000000	-1.000000	-1.000000	-1.000000	29.793103	0.000000	-1.000000	-1.000000	103476.000000	1772914143.551713
-5271.660000	116661.150000	-13931.595000	-37645.965000	0.000000	0.000000	0.000000	0.000000	0.632566	-4.751618	9.604401	6.714053	0.000000	0.000000	-0.000000	0.000000	0.701960	-0.915600	-0.579880	-0.125732	0.784605	0.615355	-1.000000	-1.000000	-1.000000	-1.000000	-1.000000	-1.000000	-1.000000	29.793103	0.000000	-1.000000	-1.000000	103477.000000	1772914143.551717
-5264.505000	116657.865000	-13933.620000	-37643.670000	0.000000	0.000000	0.000000	0.000000	-5.906850	-16.742086	6.513872	0.446897	0.000000	0.000000	-0.000000	0.000000	0.701960	-0.915600	-0.579880	-0.125732	0.784605	0.615355	-1.000000	-1.000000	-1.000000	-1.000000	-1.000000	-1.000000	-1.000000	29.793103	0.000000	-1.000000	-1.000000	103478.000000	1772914143.557584
-5252.130000	116666.415000	-13932.855000	-37654.245000	0.000000	0.000000	0.000000	0.000000	-9.672843	-20.198478	-0.157615	-6.116615	0.000000	0.000000	-0.000000	0.000000	0.701960	-0.915600	-0.579880	-0.125732	0.784605	0.615355	-1.000000	-1.000000	-1.000000	-1.000000	-1.000000	-1.000000	-1.000000	29.793103	0.000000	-1.000000	-1.000000	103479.000000	1772914143.557586
-5242.815000	116683.695000	-13927.545000	-37645.605000	0.000000	0.000000	0.000000	0.000000	-7.689052	-13.228511	-6.549763	-10.152996	0.000000	0.000000	-0.000000	0.000000	0.701960	-0.915600	-0.579880	-0.125732	0.784605	0.615355	-1.000000	-1.000000	-1.000000	-1.000000	-1.000000	-1.000000	-1.000000	29.793103	0.000000	-1.000000	-1.000000	103480.000000	1772914143.560847
-5244.615000	116699.535000	-13931.415000	-37640.970000	0.000000	0.000000	0.000000	0.000000	-1.034794	0.735786	-9.052394	-9.717672	0.000000	0.000000	-0.000000	0.000000	0.701960	-0.915600	-0.579880	-0.125732	0.784605	0.615355	-1.000000	-1.000000	-1.000000	-1.000000	-1.000000	-1.000000	-1.000000	29.793103	0.000000	-1.000000	-1.000000	103481.000000	1772914143.560850
-5254.695000	116704.755000	-13943.610000	-37660.365000	0.000000	0.000000	0.000000	0.000000	5.352900	14.581662	-7.464452	-5.358367	0.000000	0.000000	-0.000000	0.000000	2.899400	-0.610400	-1.281840	-0.123779	0.784361	0.616026	-1.000000	-1.000000	-1.000000	-1.000000	-1.000000	-1.000000	-1.000000	29.793103	0.000000	-1.000000	-1.000000	103482.000000	1772914143.563965
-5248.755000	116701.830000	-13934.070000	-37656.585000	0.000000	0.000000	0.000000	0.000000	7.175963	21.128414	-4.021384	-0.304721	0.000000	0.000000	-0.000000	0.000000	2.899400	-0.610400	-1.281840	-0.123779	0.784361	0.616026	-1.000000	-1.000000	-1.000000	-1.000000	-1.000000	-1.000000	-1.000000	29.793103	0.000000	-1.000000	-1.000000	103483.000000	1772914143.563968
-5240.790000	116691.120000	-13925.700000	-37649.790000	0.000000	0.000000	0.000000	0.000000	4.594533	17.058932	-0.152963	3.028972	0.000000	0.000000	-0.000000	0.000000	2.899400	-0.610400	-1.281840	-0.123779	0.784361	0.616026	-1.000000	-1.000000	-1.000000	-1.000000	-1.000000	-1.000000	-1.000000	29.793103	0.000000	-1.000000	-1.000000	103484.000000	1772914143.567817
-5232.015000	116678.745000	-13931.865000	-37660.005000	0.000000	0.000000	0.000000	0.000000	1.076768	4.664258	3.673513	4.729295	0.000000	0.000000	-0.000000	0.000000	2.899400	-0.610400	-1.281840	-0.123779	0.784361	0.616026	-1.000000	-1.000000	-1.000000	-1.000000	-1.000000	-1.000000	-1.000000	29.793103	0.000000	-1.000000	-1.000000	103485.000000	1772914143.567820
-5285.340000	116668.710000	-13939.290000	-37664.910000	0.000000	0.000000	0.000000	0.000000	-1.701007	-9.696460	5.942583	4.960586	0.000000	0.000000	-0.000000	0.000000	2.899400	-0.610400	-1.281840	-0.123779	0.784361	0.616026	-1.000000	-1.000000	-1.000000	-1.000000	-1.000000	-1.000000	-1.000000	29.793103	0.000000	-1.000000	-1.000000	103486.000000	1772914143.572237
-5309.145000	116674.065000	-13944.915000	-37665.540000	0.000000	0.000000	0.000000	0.000000	-5.799012	-18.962582	5.028335	3.546147	0.000000	0.000000	-0.000000	0.000000	2.899400	-0.610400	-1.281840	-0.123779	0.784361	0.616026	-1.000000	-1.000000	-1.000000	-1.000000	-1.000000	-1.000000	-1.000000	29.793103	0.000000	-1.000000	-1.000000	103487.000000	1772914143.572240
-5281.065000	116689.680000	-13956.570000	-37671.570000	0.000000	0.000000	0.000000	0.000000	-10.886038	-18.582459	1.341234	1.289305	0.000000	0.000000	-0.000000	0.000000	2.899400	-0.610400	-1.281840	-0.123779	0.784361	0.616026	-1.000000	-1.000000	-1.000000	-1.000000	-1.000000	-1.000000	-1.000000	29.793103	0.000000	-1.000000	-1.000000	103488.000000	1772914143.575785
-5258.565000	116709.750000	-13945.905000	-37656.495000	0.000000	0.000000	0.000000	0.000000	-10.650869	-8.671116	-2.678539	-0.307264	0.000000	0.000000	-0.000000	0.000000	2.899400	-0.610400	-1.281840	-0.123779	0.784361	0.616026	-1.000000	-1.000000	-1.000000	-1.000000	-1.000000	-1.000000	-1.000000	29.793103	0.000000	-1.000000	-1.000000	103489.000000	1772914143.575788
-5250.240000	116720.100000	-13936.815000	-37645.470000	0.000000	0.000000	0.000000	0.000000	-1.093770	5.670722	-3.957321	0.140327	0.000000	0.000000	-0.000000	0.000000	2.899400	-0.610400	-1.281840	-0.123779	0.784361	0.616026	-1.000000	-1.000000	-1.000000	-1.000000	-1.000000	-1.000000	-1.000000	29.793103	0.000000	-1.000000	-1.000000	103490.000000	1772914143.579748
-5245.470000	116718.255000	-13929.165000	-37639.845000	0.000000	0.000000	0.000000	0.000000	12.500953	16.691809	-1.169442	2.602840	0.000000	0.000000	-0.000000	0.000000	2.899400	-0.610400	-1.281840	-0.123779	0.784361	0.616026	-1.000000	-1.000000	-1.000000	-1.000000	-1.000000	-1.000000	-1.000000	29.793103	0.000000	-1.000000	-1.000000	103491.000000	1772914143.579752
-5234.895000	116705.835000	-13911.255000	-37626.930000	0.000000	0.000000	0.000000	0.000000	20.838791	18.261869	3.929875	5.072723	0.000000	0.000000	-0.000000	0.000000	2.792580	0.320460	-0.122080	-0.122314	0.781980	0.615721	-1.000000	-1.000000	-1.000000	-1.000000	-1.000000	-1.000000	-1.000000	29.793103	0.000000	-1.000000	-1.000000	103492.000000	1772914143.583781
-5250.150000	116689.770000	-13915.980000	-37630.755000	0.000000	0.000000	0.000000	0.000000	18.789072	9.521625	7.950029	5.262515	0.000000	0.000000	-0.000000	0.000000	2.792580	0.320460	-0.122080	-0.122314	0.781980	0.615721	-1.000000	-1.000000	-1.000000	-1.000000	-1.000000	-1.000000	-1.000000	29.793103	0.000000	-1.000000	-1.000000	103493.000000	1772914143.583783
-5297.580000	116669.610000	-13955.490000	-37662.975000	0.000000	0.000000	0.000000	0.000000	6.732663	-4.756170	7.167671	1.618627	0.000000	0.000000	-0.000000	0.000000	2.792580	0.320460	-0.122080	-0.122314	0.781980	0.615721	-1.000000	-1.000000	-1.000000	-1.000000	-1.000000	-1.000000	-1.000000	29.793103	0.000000	-1.000000	-1.000000	103494.000000	1772914143.587718
-5305.005000	116671.500000	-13962.420000	-37661.985000	0.000000	0.000000	0.000000	0.000000	-10.776452	-16.932326	-0.318165	-5.780298	0.000000	0.000000	-0.000000	0.000000	2.792580	0.320460	-0.122080	-0.122314	0.781980	0.615721	-1.000000	-1.000000	-1.000000	-1.000000	-1.000000	-1.000000	-1.000000	29.793103	0.000000	-1.000000	-1.000000	103495.000000	1772914143.587722
-5276.970000	116687.160000	-13941.090000	-37640.115000	0.000000	0.000000	0.000000	0.000000	-24.407493	-20.146054	-10.297047	-12.695025	0.000000	0.000000	-0.000000	0.000000	2.792580	0.320460	-0.122080	-0.122314	0.781980	0.615721	-1.000000	-1.000000	-1.000000	-1.000000	-1.000000	-1.000000	-1.000000	29.793103	0.000000	-1.000000	-1.000000	103496.000000	1772914143.591749
-5237.910000	116705.925000	-13919.580000	-37632.510000	0.000000	0.000000	0.000000	0.000000	-23.936172	-11.967902	-14.055506	-12.883453	0.000000	0.000000	-0.000000	0.000000	2.792580	0.320460	-0.122080	-0.122314	0.781980	0.615721	-1.000000	-1.000000	-1.000000	-1.000000	-1.000000	-1.000000	-1.000000	29.793103	0.000000	-1.000000	-1.000000	103497.000000	1772914143.591752
-5227.695000	116717.670000	-13923.855000	-37638.900000	0.000000	0.000000	0.000000	0.000000	-7.848554	3.435813	-7.653746	-5.372893	0.000000	0.000000	-0.000000	0.000000	2.792580	0.320460	-0.122080	-0.122314	0.781980	0.615721	-1.000000	-1.000000	-1.000000	-1.000000	-1.000000	-1.000000	-1.000000	29.793103	0.000000	-1.000000	-1.000000	103498.000000	1772914143.595744
-5240.520000	116720.505000	-13930.200000	-37643.535000	0.000000	0.000000	0.000000	0.000000	12.947500	17.380620	3.413842	3.995169	0.000000	0.000000	-0.000000	0.000000	2.792580	0.320460	-0.122080	-0.122314	0.781980	0.615721	-1.000000	-1.000000	-1.000000	-1.000000	-1.000000	-1.000000	-1.000000	29.793103	0.000000	-1.000000	-1.000000	103499.000000	1772914143.595747
-5261.805000	116709.255000	-13943.430000	-37662.390000	0.000000	0.000000	0.000000	0.000000	23.590025	22.020391	10.253845	8.645872	0.000000	0.000000	-0.000000	0.000000	2.792580	0.320460	-0.122080	-0.122314	0.781980	0.615721	-1.000000	-1.000000	-1.000000	-1.000000	-1.000000	-1.000000	-1.000000	29.793103	0.000000	-1.000000	-1.000000	103500.000000	1772914143.599588
-5264.640000	116692.920000	-13939.290000	-37667.925000	0.000000	0.000000	0.000000	0.000000	17.718293	14.868969	8.944438	6.500658	0.000000	0.000000	-0.000000	0.000000	2.792580	0.320460	-0.122080	-0.122314	0.781980	0.615721	-1.000000	-1.000000	-1.000000	-1.000000	-1.000000	-1.000000	-1.000000	29.793103	0.000000	-1.000000	-1.000000	103501.000000	1772914143.599591
-5241.600000	116679.915000	-13914.045000	-37647.090000	0.000000	0.000000	0.000000	0.000000	2.051289	-0.046720	3.006133	1.020821	0.000000	0.000000	-0.000000	0.000000	5.691980	0.747740	-1.373400	-0.124023	0.781980	0.618346	-1.000000	-1.000000	-1.000000	-1.000000	-1.000000	-1.000000	-1.000000	29.793103	0.000000	-1.000000	-1.000000	103502.000000	1772914143.603895
-5239.755000	116675.865000	-13912.335000	-37640.070000	0.000000	0.000000	0.000000	0.000000	-10.819267	-14.586897	-1.191094	-1.886331	0.000000	0.000000	-0.000000	0.000000	5.691980	0.747740	-1.373400	-0.124023	0.781980	0.618346	-1.000000	-1.000000	-1.000000	-1.000000	-1.000000	-1.000000	-1.000000	29.793103	0.000000	-1.000000	-1.000000	103503.000000	1772914143.603898
-5229.765000	116678.565000	-13904.820000	-37623.825000	0.000000	0.000000	0.000000	0.000000	-13.686661	-21.152386	-1.164552	0.445376	0.000000	0.000000	-0.000000	0.000000	5.691980	0.747740	-1.373400	-0.124023	0.781980	0.618346	-1.000000	-1.000000	-1.000000	-1.000000	-1.000000	-1.000000	-1.000000	29.793103	0.000000	-1.000000	-1.000000	103504.000000	1772914143.607773
-5255.145000	116702.505000	-13939.110000	-37653.255000	0.000000	0.000000	0.000000	0.000000	-8.767663	-16.582088	0.063127	4.848265	0.000000	0.000000	-0.000000	0.000000	5.691980	0.747740	-1.373400	-0.124023	0.781980	0.618346	-1.000000	-1.000000	-1.000000	-1.000000	-1.000000	-1.000000	-1.000000	29.793103	0.000000	-1.000000	-1.000000	103505.000000	1772914143.607776
-5298.480000	116719.785000	-13978.440000	-37687.050000	0.000000	0.000000	0.000000	0.000000	-3.648407	-3.231777	-2.333340	5.080078	0.000000	0.000000	-0.000000	0.000000	5.691980	0.747740	-1.373400	-0.124023	0.781980	0.618346	-1.000000	-1.000000	-1.000000	-1.000000	-1.000000	-1.000000	-1.000000	29.793103	0.000000	-1.000000	-1.000000	103506.000000	1772914143.613130
-5288.940000	116726.805000	-13972.950000	-37678.725000	0.000000	0.000000	0.000000	0.000000	-3.489171	12.022994	-9.120465	-1.417669	0.000000	0.000000	-0.000000	0.000000	5.691980	0.747740	-1.373400	-0.124023	0.781980	0.618346	-1.000000	-1.000000	-1.000000	-1.000000	-1.000000	-1.000000	-1.000000	29.793103	0.000000	-1.000000	-1.000000	103507.000000	1772914143.613133
-5245.380000	116721.495000	-13927.500000	-37634.130000	0.000000	0.000000	0.000000	0.000000	-4.754120	20.870005	-13.482005	-8.529575	0.000000	0.000000	-0.000000	0.000000	5.691980	0.747740	-1.373400	-0.124023	0.781980	0.618346	-1.000000	-1.000000	-1.000000	-1.000000	-1.000000	-1.000000	-1.000000	29.793103	0.000000	-1.000000	-1.000000	103508.000000	1772914143.615666
-5246.730000	116708.985000	-13917.465000	-37625.130000	0.000000	0.000000	0.000000	0.000000	-0.237373	18.371147	-7.472924	-7.477052	0.000000	0.000000	-0.000000	0.000000	5.691980	0.747740	-1.373400	-0.124023	0.781980	0.618346	-1.000000	-1.000000	-1.000000	-1.000000	-1.000000	-1.000000	-1.000000	29.793103	0.000000	-1.000000	-1.000000	103509.000000	1772914143.615670
-5246.820000	116693.370000	-13909.905000	-37614.645000	0.000000	0.000000	0.000000	0.000000	9.570745	5.988739	7.222609	2.064039	0.000000	0.000000	-0.000000	0.000000	5.691980	0.747740	-1.373400	-0.124023	0.781980	0.618346	-1.000000	-1.000000	-1.000000	-1.000000	-1.000000	-1.000000	-1.000000	29.793103	0.000000	-1.000000	-1.000000	103510.000000	1772914143.619722
-5231.970000	116687.520000	-13898.430000	-37602.135000	0.000000	0.000000	0.000000	0.000000	16.939863	-9.445366	20.194037	11.930824	0.000000	0.000000	-0.000000	0.000000	5.691980	0.747740	-1.373400	-0.124023	0.781980	0.618346	-1.000000	-1.000000	-1.000000	-1.000000	-1.000000	-1.000000	-1.000000	29.793103	0.000000	-1.000000	-1.000000	103511.000000	1772914143.619724
-5258.205000	116691.210000	-13932.450000	-37638.045000	0.000000	0.000000	0.000000	0.000000	16.113047	-19.643687	22.251590	14.020784	0.000000	0.000000	-0.000000	0.000000	7.187460	-0.915600	-0.656180	-0.124878	0.782164	0.617918	-1.000000	-1.000000	-1.000000	-1.000000	-1.000000	-1.000000	-1.000000	29.793103	0.000000	-1.000000	-1.000000	103512.000000	1772914143.624053
-5278.590000	116706.060000	-13951.395000	-37655.820000	0.000000	0.000000	0.000000	0.000000	6.576902	-19.330633	11.139925	5.440842	0.000000	0.000000	-0.000000	0.000000	7.187460	-0.915600	-0.656180	-0.124878	0.782164	0.617918	-1.000000	-1.000000	-1.000000	-1.000000	-1.000000	-1.000000	-1.000000	29.793103	0.000000	-1.000000	-1.000000	103513.000000	1772914143.624056
-5256.450000	116717.040000	-13932.990000	-37644.975000	0.000000	0.000000	0.000000	0.000000	-7.009401	-9.038315	-6.907099	-9.187364	0.000000	0.000000	-0.000000	0.000000	7.187460	-0.915600	-0.656180	-0.124878	0.782164	0.617918	-1.000000	-1.000000	-1.000000	-1.000000	-1.000000	-1.000000	-1.000000	29.793103	0.000000	-1.000000	-1.000000	103514.000000	1772914143.627831
-5227.020000	116728.605000	-13914.405000	-37633.410000	0.000000	0.000000	0.000000	0.000000	-15.630917	5.357009	-19.826668	-19.467977	0.000000	0.000000	-0.000000	0.000000	7.187460	-0.915600	-0.656180	-0.124878	0.782164	0.617918	-1.000000	-1.000000	-1.000000	-1.000000	-1.000000	-1.000000	-1.000000	29.793103	0.000000	-1.000000	-1.000000	103515.000000	1772914143.627833
-5231.925000	116725.860000	-13918.230000	-37641.915000	0.000000	0.000000	0.000000	0.000000	-13.247487	16.148451	-19.591500	-18.225571	0.000000	0.000000	-0.000000	0.000000	7.187460	-0.915600	-0.656180	-0.124878	0.782164	0.617918	-1.000000	-1.000000	-1.000000	-1.000000	-1.000000	-1.000000	-1.000000	29.793103	0.000000	-1.000000	-1.000000	103516.000000	1772914143.631760
-5251.005000	116711.685000	-13925.835000	-37647.495000	0.000000	0.000000	0.000000	0.000000	-3.803752	17.869744	-9.202816	-7.868156	0.000000	0.000000	-0.000000	0.000000	7.187460	-0.915600	-0.656180	-0.124878	0.782164	0.617918	-1.000000	-1.000000	-1.000000	-1.000000	-1.000000	-1.000000	-1.000000	29.793103	0.000000	-1.000000	-1.000000	103517.000000	1772914143.631763
-5259.195000	116695.845000	-13920.615000	-37638.720000	0.000000	0.000000	0.000000	0.000000	3.347346	9.863814	2.254532	3.931068	0.000000	0.000000	-0.000000	0.000000	7.187460	-0.915600	-0.656180	-0.124878	0.782164	0.617918	-1.000000	-1.000000	-1.000000	-1.000000	-1.000000	-1.000000	-1.000000	29.793103	0.000000	-1.000000	-1.000000	103518.000000	1772914143.635667
-5256.090000	116687.520000	-13913.505000	-37626.120000	0.000000	0.000000	0.000000	0.000000	3.685745	-3.271607	8.723299	11.880567	0.000000	0.000000	-0.000000	0.000000	7.187460	-0.915600	-0.656180	-0.124878	0.782164	0.617918	-1.000000	-1.000000	-1.000000	-1.000000	-1.000000	-1.000000	-1.000000	29.793103	0.000000	-1.000000	-1.000000	103519.000000	1772914143.635671
-5209.830000	116692.785000	-13874.805000	-37582.965000	0.000000	0.000000	0.000000	0.000000	0.983542	-13.986611	10.347730	15.509002	0.000000	0.000000	-0.000000	0.000000	7.187460	-0.915600	-0.656180	-0.124878	0.782164	0.617918	-1.000000	-1.000000	-1.000000	-1.000000	-1.000000	-1.000000	-1.000000	29.793103	0.000000	-1.000000	-1.000000	103520.000000	1772914143.639792
-5213.385000	116707.590000	-13884.030000	-37575.405000	0.000000	0.000000	0.000000	0.000000	1.383354	-16.089515	9.933611	16.427119	0.000000	0.000000	-0.000000	0.000000	7.187460	-0.915600	-0.656180	-0.124878	0.782164	0.617918	-1.000000	-1.000000	-1.000000	-1.000000	-1.000000	-1.000000	-1.000000	29.793103	0.000000	-1.000000	-1.000000	103521.000000	1772914143.639795
-5239.395000	116726.310000	-13917.690000	-37604.205000	0.000000	0.000000	0.000000	0.000000	4.680410	-8.425489	7.243440	13.705627	0.000000	0.000000	-0.000000	0.000000	5.157880	3.738700	-1.236060	-0.123230	0.789183	0.615416	-1.000000	-1.000000	-1.000000	-1.000000	-1.000000	-1.000000	-1.000000	29.793103	0.000000	-1.000000	-1.000000	103522.000000	1772914143.643660
-5241.690000	116744.130000	-13935.735000	-37631.025000	0.000000	0.000000	0.000000	0.000000	4.912251	4.560607	-0.424166	4.044008	0.000000	0.000000	-0.000000	0.000000	5.157880	3.738700	-1.236060	-0.123230	0.789183	0.615416	-1.000000	-1.000000	-1.000000	-1.000000	-1.000000	-1.000000	-1.000000	29.793103	0.000000	-1.000000	-1.000000	103523.000000	1772914143.643663
-5204.880000	116749.755000	-13897.440000	-37595.340000	0.000000	0.000000	0.000000	0.000000	0.454514	15.567110	-10.626105	-10.713929	0.000000	0.000000	-0.000000	0.000000	5.157880	3.738700	-1.236060	-0.123230	0.789183	0.615416	-1.000000	-1.000000	-1.000000	-1.000000	-1.000000	-1.000000	-1.000000	29.793103	0.000000	-1.000000	-1.000000	103524.000000	1772914143.647691
-5190.300000	116740.485000	-13872.420000	-37593.090000	0.000000	0.000000	0.000000	0.000000	-3.153225	18.350588	-14.649813	-21.130804	0.000000	0.000000	-0.000000	0.000000	5.157880	3.738700	-1.236060	-0.123230	0.789183	0.615416	-1.000000	-1.000000	-1.000000	-1.000000	-1.000000	-1.000000	-1.000000	29.793103	0.000000	-1.000000	-1.000000	103525.000000	1772914143.647693
-5235.660000	116721.675000	-13893.480000	-37630.080000	0.000000	0.000000	0.000000	0.000000	-2.751248	10.837877	-8.150708	-20.741863	0.000000	0.000000	-0.000000	0.000000	5.157880	3.738700	-1.236060	-0.123230	0.789183	0.615416	-1.000000	-1.000000	-1.000000	-1.000000	-1.000000	-1.000000	-1.000000	29.793103	0.000000	-1.000000	-1.000000	103526.000000	1772914143.654074
-5307.840000	116705.970000	-13951.890000	-37696.770000	0.000000	0.000000	0.000000	0.000000	-3.624305	-3.590954	1.448914	-14.302434	0.000000	0.000000	-0.000000	0.000000	5.157880	3.738700	-1.236060	-0.123230	0.789183	0.615416	-1.000000	-1.000000	-1.000000	-1.000000	-1.000000	-1.000000	-1.000000	29.793103	0.000000	-1.000000	-1.000000	103527.000000	1772914143.654088
-5266.935000	116705.295000	-13926.870000	-37667.700000	0.000000	0.000000	0.000000	0.000000	-10.001994	-17.402853	4.148855	-9.304797	0.000000	0.000000	-0.000000	0.000000	5.157880	3.738700	-1.236060	-0.123230	0.789183	0.615416	-1.000000	-1.000000	-1.000000	-1.000000	-1.000000	-1.000000	-1.000000	29.793103	0.000000	-1.000000	-1.000000	103528.000000	1772914143.655715
-5162.040000	116722.530000	-13851.315000	-37582.515000	0.000000	0.000000	0.000000	0.000000	-13.160928	-22.670295	1.841718	-3.163837	0.000000	0.000000	-0.000000	0.000000	5.157880	3.738700	-1.236060	-0.123230	0.789183	0.615416	-1.000000	-1.000000	-1.000000	-1.000000	-1.000000	-1.000000	-1.000000	29.793103	0.000000	-1.000000	-1.000000	103529.000000	1772914143.655718
-5174.415000	116738.100000	-13863.420000	-37587.645000	0.000000	0.000000	0.000000	0.000000	-1.555347	-15.834270	4.099589	11.085674	0.000000	0.000000	-0.000000	0.000000	5.157880	3.738700	-1.236060	-0.123230	0.789183	0.615416	-1.000000	-1.000000	-1.000000	-1.000000	-1.000000	-1.000000	-1.000000	29.793103	0.000000	-1.000000	-1.000000	103530.000000	1772914143.660102
-5238.180000	116751.915000	-13932.630000	-37654.065000	0.000000	0.000000	0.000000	0.000000	17.722382	-0.476447	10.012122	27.311711	0.000000	0.000000	-0.000000	0.000000	5.157880	3.738700	-1.236060	-0.123230	0.789183	0.615416	-1.000000	-1.000000	-1.000000	-1.000000	-1.000000	-1.000000	-1.000000	29.793103	0.000000	-1.000000	-1.000000	103531.000000	1772914143.660106
-5268.330000	116757.450000	-13966.020000	-37682.460000	0.000000	0.000000	0.000000	0.000000	24.077973	14.776818	8.023579	29.115703	0.000000	0.000000	-0.000000	0.000000	5.020540	4.913720	2.060100	-0.118042	0.790525	0.612669	-1.000000	-1.000000	-1.000000	-1.000000	-1.000000	-1.000000	-1.000000	29.793103	0.000000	-1.000000	-1.000000	103532.000000	1772914143.666119
-5283.810000	116748.900000	-13963.005000	-37675.935000	0.000000	0.000000	0.000000	0.000000	9.674919	21.710859	-5.081383	11.905507	0.000000	0.000000	-0.000000	0.000000	5.020540	4.913720	2.060100	-0.118042	0.790525	0.612669	-1.000000	-1.000000	-1.000000	-1.000000	-1.000000	-1.000000	-1.000000	29.793103	0.000000	-1.000000	-1.000000	103533.000000	1772914143.666122
-5279.535000	116729.685000	-13935.915000	-37649.565000	0.000000	0.000000	0.000000	0.000000	-12.684102	16.913347	-17.563754	-10.119095	0.000000	0.000000	-0.000000	0.000000	5.020540	4.913720	2.060100	-0.118042	0.790525	0.612669	-1.000000	-1.000000	-1.000000	-1.000000	-1.000000	-1.000000	-1.000000	29.793103	0.000000	-1.000000	-1.000000	103534.000000	1772914143.669594
-5266.980000	116715.735000	-13925.025000	-37648.170000	0.000000	0.000000	0.000000	0.000000	-24.908228	3.209017	-16.643272	-20.127159	0.000000	0.000000	-0.000000	0.000000	5.020540	4.913720	2.060100	-0.118042	0.790525	0.612669	-1.000000	-1.000000	-1.000000	-1.000000	-1.000000	-1.000000	-1.000000	29.793103	0.000000	-1.000000	-1.000000	103535.000000	1772914143.669597
-5257.755000	116709.300000	-13923.270000	-37646.730000	0.000000	0.000000	0.000000	0.000000	-19.115216	-11.825991	-2.171152	-14.396196	0.000000	0.000000	-0.000000	0.000000	5.020540	4.913720	2.060100	-0.118042	0.790525	0.612669	-1.000000	-1.000000	-1.000000	-1.000000	-1.000000	-1.000000	-1.000000	29.793103	0.000000	-1.000000	-1.000000	103536.000000	1772914143.674439
-5278.320000	116716.005000	-13944.645000	-37664.955000	0.000000	0.000000	0.000000	0.000000	-1.484128	-19.975059	14.355272	-1.807724	0.000000	0.000000	-0.000000	0.000000	5.020540	4.913720	2.060100	-0.118042	0.790525	0.612669	-1.000000	-1.000000	-1.000000	-1.000000	-1.000000	-1.000000	-1.000000	29.793103	0.000000	-1.000000	-1.000000	103537.000000	1772914143.674442
-5290.065000	116732.205000	-13959.090000	-37673.325000	0.000000	0.000000	0.000000	0.000000	14.536002	-16.943013	20.864238	6.759484	0.000000	0.000000	-0.000000	0.000000	5.020540	4.913720	2.060100	-0.118042	0.790525	0.612669	-1.000000	-1.000000	-1.000000	-1.000000	-1.000000	-1.000000	-1.000000	29.793103	0.000000	-1.000000	-1.000000	103538.000000	1772914143.677435
-5244.660000	116752.725000	-13920.480000	-37632.420000	0.000000	0.000000	0.000000	0.000000	20.396506	-4.478421	15.024250	7.748762	0.000000	0.000000	-0.000000	0.000000	5.020540	4.913720	2.060100	-0.118042	0.790525	0.612669	-1.000000	-1.000000	-1.000000	-1.000000	-1.000000	-1.000000	-1.000000	29.793103	0.000000	-1.000000	-1.000000	103539.000000	1772914143.677438
-5213.925000	116764.245000	-13895.595000	-37607.535000	0.000000	0.000000	0.000000	0.000000	18.475131	10.769449	5.077595	5.956736	0.000000	0.000000	-0.000000	0.000000	5.020540	4.913720	2.060100	-0.118042	0.790525	0.612669	-1.000000	-1.000000	-1.000000	-1.000000	-1.000000	-1.000000	-1.000000	29.793103	0.000000	-1.000000	-1.000000	103540.000000	1772914143.679648
-5215.815000	116767.575000	-13892.175000	-37601.820000	0.000000	0.000000	0.000000	0.000000	14.445724	20.757324	-0.511530	6.171024	0.000000	0.000000	-0.000000	0.000000	5.020540	4.913720	2.060100	-0.118042	0.790525	0.612669	-1.000000	-1.000000	-1.000000	-1.000000	-1.000000	-1.000000	-1.000000	29.793103	0.000000	-1.000000	-1.000000	103541.000000	1772914143.679651
-5199.885000	116757.810000	-13865.940000	-37576.395000	0.000000	0.000000	0.000000	0.000000	8.975664	20.241919	-1.130307	7.205574	0.000000	0.000000	-0.000000	0.000000	10.727780	0.808780	4.516960	-0.128173	0.790342	0.621886	-1.000000	-1.000000	-1.000000	-1.000000	-1.000000	-1.000000	-1.000000	29.793103	0.000000	-1.000000	-1.000000	103542.000000	1772914143.683663
-5228.730000	116740.395000	-13896.090000	-37608.300000	0.000000	0.000000	0.000000	0.000000	0.098926	9.358193	-1.241089	5.064406	0.000000	0.000000	-0.000000	0.000000	10.727780	0.808780	4.516960	-0.128173	0.790342	0.621886	-1.000000	-1.000000	-1.000000	-1.000000	-1.000000	-1.000000	-1.000000	29.793103	0.000000	-1.000000	-1.000000	103543.000000	1772914143.683666
-5290.290000	116719.785000	-13951.080000	-37667.295000	0.000000	0.000000	0.000000	0.000000	-12.917512	-6.753050	-5.880659	-3.568562	0.000000	0.000000	-0.000000	0.000000	10.727780	0.808780	4.516960	-0.128173	0.790342	0.621886	-1.000000	-1.000000	-1.000000	-1.000000	-1.000000	-1.000000	-1.000000	29.793103	0.000000	-1.000000	-1.000000	103544.000000	1772914143.687738
