Channel1	Channel2	Channel3	Channel4	Channel5	Channel6	Channel7	Channel8	FilteredChannel1	FilteredChannel2	FilteredChannel3	FilteredChannel4	FilteredChannel5	FilteredChannel6	FilteredChannel7	FilteredChannel8	GyroX	GyroY	GyroZ	AccX	AccY	AccZ	PPG1	PPG2	rawPPG1	rawPPG2	rawPPG3	Hr	Hrv	Battery	Trigger	PhysicalTrigger	AutoTrigger	NumMeasurements	Timestamp
3756.780000	90949.635000	-10724.940000	-25360.290000	0.000000	0.000000	0.000000	0.000000	21.642404	24.435037	10.016966	16.681989	-0.000000	0.000000	-0.000000	-0.000000	1.800680	-1.831200	-4.715340	-0.062622	0.795408	0.602110	-1.000000	-1.000000	-1.000000	-1.000000	-1.000000	-1.000000	-1.000000	14.344828	0.000000	-1.000000	-1.000000	356001.000000	1772914648.623533
3736.845000	90929.385000	-10738.530000	-25383.735000	0.000000	0.000000	0.000000	0.000000	18.441172	23.335201	8.472543	13.687270	-0.000000	0.000000	-0.000000	-0.000000	1.800680	-1.831200	-4.715340	-0.062622	0.795408	0.602110	-1.000000	-1.000000	-1.000000	-1.000000	-1.000000	-1.000000	-1.000000	14.344828	0.000000	-1.000000	-1.000000	356002.000000	1772914648.623535
3723.210000	90907.605000	-10743.930000	-25392.330000	0.000000	0.000000	0.000000	0.000000	4.730685	9.098327	1.417141	2.404993	-0.000000	0.000000	-0.000000	-0.000000	1.800680	-1.831200	-4.715340	-0.062622	0.795408	0.602110	-1.000000	-1.000000	-1.000000	-1.000000	-1.000000	-1.000000	-1.000000	14.344828	0.000000	-1.000000	-1.000000	356003.000000	1772914648.627484
3709.935000	90891.360000	-10751.130000	-25398.945000	0.000000	0.000000	0.000000	0.000000	-11.997202	-10.420144	-7.392500	-11.370109	-0.000000	0.000000	-0.000000	-0.000000	1.800680	-1.831200	-4.715340	-0.062622	0.795408	0.602110	-1.000000	-1.000000	-1.000000	-1.000000	-1.000000	-1.000000	-1.000000	14.344828	0.000000	-1.000000	-1.000000	356004.000000	1772914648.627488
3713.535000	90890.055000	-10749.780000	-25396.245000	0.000000	0.000000	0.000000	0.000000	-22.725132	-24.535619	-12.955095	-19.808753	-0.000000	0.000000	-0.000000	-0.000000	1.800680	-1.831200	-4.715340	-0.062622	0.795408	0.602110	-1.000000	-1.000000	-1.000000	-1.000000	-1.000000	-1.000000	-1.000000	14.344828	0.000000	-1.000000	-1.000000	356005.000000	1772914648.631599
3728.745000	90907.740000	-10744.245000	-25387.155000	0.000000	0.000000	0.000000	0.000000	-21.803877	-25.671855	-12.201387	-18.259577	-0.000000	0.000000	-0.000000	-0.000000	1.800680	-1.831200	-4.715340	-0.062622	0.795408	0.602110	-1.000000	-1.000000	-1.000000	-1.000000	-1.000000	-1.000000	-1.000000	14.344828	0.000000	-1.000000	-1.000000	356006.000000	1772914648.631602
3742.650000	90929.070000	-10737.135000	-25378.245000	0.000000	0.000000	0.000000	0.000000	-9.747340	-13.097298	-5.551441	-7.863326	-0.000000	0.000000	-0.000000	-0.000000	1.800680	-1.831200	-4.715340	-0.062622	0.795408	0.602110	-1.000000	-1.000000	-1.000000	-1.000000	-1.000000	-1.000000	-1.000000	14.344828	0.000000	-1.000000	-1.000000	356007.000000	1772914648.635500
3749.400000	90943.290000	-10733.085000	-25370.460000	0.000000	0.000000	0.000000	0.000000	6.933521	6.627774	3.525806	5.682257	-0.000000	0.000000	-0.000000	-0.000000	1.800680	-1.831200	-4.715340	-0.062622	0.795408	0.602110	-1.000000	-1.000000	-1.000000	-1.000000	-1.000000	-1.000000	-1.000000	14.344828	0.000000	-1.000000	-1.000000	356008.000000	1772914648.635503
3744.990000	90945.270000	-10735.515000	-25371.495000	0.000000	0.000000	0.000000	0.000000	19.263163	22.979265	10.419497	15.569866	-0.000000	0.000000	-0.000000	-0.000000	2.441600	0.640920	-4.120200	-0.058410	0.799620	0.599059	-1.000000	-1.000000	-1.000000	-1.000000	-1.000000	-1.000000	-1.000000	14.344828	0.000000	-1.000000	-1.000000	356009.000000	1772914648.639543
3739.455000	90933.795000	-10737.810000	-25376.220000	0.000000	0.000000	0.000000	0.000000	21.091539	27.317050	11.882569	17.398534	-0.000000	0.000000	-0.000000	-0.000000	2.441600	0.640920	-4.120200	-0.058410	0.799620	0.599059	-1.000000	-1.000000	-1.000000	-1.000000	-1.000000	-1.000000	-1.000000	14.344828	0.000000	-1.000000	-1.000000	356010.000000	1772914648.639546
3750.300000	90914.445000	-10718.100000	-25359.795000	0.000000	0.000000	0.000000	0.000000	12.853856	17.589217	8.189188	11.502885	-0.000000	0.000000	-0.000000	-0.000000	2.441600	0.640920	-4.120200	-0.058410	0.799620	0.599059	-1.000000	-1.000000	-1.000000	-1.000000	-1.000000	-1.000000	-1.000000	14.344828	0.000000	-1.000000	-1.000000	356011.000000	1772914648.643529
3737.970000	90898.650000	-10722.330000	-25365.870000	0.000000	0.000000	0.000000	0.000000	0.508036	-0.859264	2.687422	2.386951	-0.000000	0.000000	-0.000000	-0.000000	2.441600	0.640920	-4.120200	-0.058410	0.799620	0.599059	-1.000000	-1.000000	-1.000000	-1.000000	-1.000000	-1.000000	-1.000000	14.344828	0.000000	-1.000000	-1.000000	356012.000000	1772914648.643532
3701.160000	90891.180000	-10757.970000	-25399.980000	0.000000	0.000000	0.000000	0.000000	-10.318339	-18.392251	-2.467154	-5.944306	-0.000000	0.000000	-0.000000	-0.000000	2.441600	0.640920	-4.120200	-0.058410	0.799620	0.599059	-1.000000	-1.000000	-1.000000	-1.000000	-1.000000	-1.000000	-1.000000	14.344828	0.000000	-1.000000	-1.000000	356013.000000	1772914648.649626
3686.130000	90904.410000	-10775.430000	-25414.020000	0.000000	0.000000	0.000000	0.000000	-17.561659	-26.110619	-8.056565	-12.635421	-0.000000	0.000000	-0.000000	-0.000000	2.441600	0.640920	-4.120200	-0.058410	0.799620	0.599059	-1.000000	-1.000000	-1.000000	-1.000000	-1.000000	-1.000000	-1.000000	14.344828	0.000000	-1.000000	-1.000000	356014.000000	1772914648.649630
3706.470000	90927.135000	-10764.405000	-25397.460000	0.000000	0.000000	0.000000	0.000000	-19.373024	-20.152599	-13.148619	-16.258747	-0.000000	0.000000	-0.000000	-0.000000	2.441600	0.640920	-4.120200	-0.058410	0.799620	0.599059	-1.000000	-1.000000	-1.000000	-1.000000	-1.000000	-1.000000	-1.000000	14.344828	0.000000	-1.000000	-1.000000	356015.000000	1772914648.651673
3713.040000	90947.295000	-10768.770000	-25398.675000	0.000000	0.000000	0.000000	0.000000	-12.892060	-3.673126	-13.402350	-13.402186	-0.000000	0.000000	-0.000000	-0.000000	2.441600	0.640920	-4.120200	-0.058410	0.799620	0.599059	-1.000000	-1.000000	-1.000000	-1.000000	-1.000000	-1.000000	-1.000000	14.344828	0.000000	-1.000000	-1.000000	356016.000000	1772914648.651675
3742.515000	90955.755000	-10741.725000	-25376.085000	0.000000	0.000000	0.000000	0.000000	1.180216	14.477851	-6.260172	-3.432854	-0.000000	0.000000	-0.000000	-0.000000	2.441600	0.640920	-4.120200	-0.058410	0.799620	0.599059	-1.000000	-1.000000	-1.000000	-1.000000	-1.000000	-1.000000	-1.000000	14.344828	0.000000	-1.000000	-1.000000	356017.000000	1772914648.655732
3743.640000	90948.735000	-10733.040000	-25368.975000	0.000000	0.000000	0.000000	0.000000	16.645912	24.450715	5.844167	9.387599	-0.000000	0.000000	-0.000000	-0.000000	2.441600	0.640920	-4.120200	-0.058410	0.799620	0.599059	-1.000000	-1.000000	-1.000000	-1.000000	-1.000000	-1.000000	-1.000000	14.344828	0.000000	-1.000000	-1.000000	356018.000000	1772914648.655735
3722.220000	90925.695000	-10748.745000	-25385.895000	0.000000	0.000000	0.000000	0.000000	24.892880	20.815310	16.505116	18.330091	-0.000000	0.000000	-0.000000	-0.000000	1.648080	1.617560	-0.244160	-0.054687	0.810545	0.597838	-1.000000	-1.000000	-1.000000	-1.000000	-1.000000	-1.000000	-1.000000	14.344828	0.000000	-1.000000	-1.000000	356019.000000	1772914648.659488
3703.995000	90902.025000	-10759.455000	-25399.620000	0.000000	0.000000	0.000000	0.000000	20.105140	5.416348	18.746963	17.788153	-0.000000	0.000000	-0.000000	-0.000000	1.648080	1.617560	-0.244160	-0.054687	0.810545	0.597838	-1.000000	-1.000000	-1.000000	-1.000000	-1.000000	-1.000000	-1.000000	14.344828	0.000000	-1.000000	-1.000000	356020.000000	1772914648.659490
3691.845000	90882.000000	-10767.150000	-25407.090000	0.000000	0.000000	0.000000	0.000000	4.355129	-13.650509	10.735061	7.692265	-0.000000	0.000000	-0.000000	-0.000000	1.648080	1.617560	-0.244160	-0.054687	0.810545	0.597838	-1.000000	-1.000000	-1.000000	-1.000000	-1.000000	-1.000000	-1.000000	14.344828	0.000000	-1.000000	-1.000000	356021.000000	1772914648.663570
3701.070000	90883.485000	-10759.770000	-25393.770000	0.000000	0.000000	0.000000	0.000000	-12.781029	-26.259392	-2.050900	-5.325170	-0.000000	0.000000	-0.000000	-0.000000	1.648080	1.617560	-0.244160	-0.054687	0.810545	0.597838	-1.000000	-1.000000	-1.000000	-1.000000	-1.000000	-1.000000	-1.000000	14.344828	0.000000	-1.000000	-1.000000	356022.000000	1772914648.663572
3726.765000	90901.170000	-10743.120000	-25378.695000	0.000000	0.000000	0.000000	0.000000	-20.713452	-25.375323	-11.188516	-12.719622	-0.000000	0.000000	-0.000000	-0.000000	1.648080	1.617560	-0.244160	-0.054687	0.810545	0.597838	-1.000000	-1.000000	-1.000000	-1.000000	-1.000000	-1.000000	-1.000000	14.344828	0.000000	-1.000000	-1.000000	356023.000000	1772914648.667560
3751.695000	90922.230000	-10728.450000	-25363.665000	0.000000	0.000000	0.000000	0.000000	-14.912840	-10.817491	-11.542146	-10.516788	-0.000000	0.000000	-0.000000	-0.000000	1.648080	1.617560	-0.244160	-0.054687	0.810545	0.597838	-1.000000	-1.000000	-1.000000	-1.000000	-1.000000	-1.000000	-1.000000	14.344828	0.000000	-1.000000	-1.000000	356024.000000	1772914648.667563
3753.270000	90934.470000	-10730.790000	-25360.560000	0.000000	0.000000	0.000000	0.000000	-0.106036	10.105202	-4.683118	-1.830531	-0.000000	0.000000	-0.000000	-0.000000	1.648080	1.617560	-0.244160	-0.054687	0.810545	0.597838	-1.000000	-1.000000	-1.000000	-1.000000	-1.000000	-1.000000	-1.000000	14.344828	0.000000	-1.000000	-1.000000	356025.000000	1772914648.671534
3744.855000	90932.895000	-10732.320000	-25370.055000	0.000000	0.000000	0.000000	0.000000	12.895112	26.294547	2.940798	6.113001	-0.000000	0.000000	-0.000000	-0.000000	1.648080	1.617560	-0.244160	-0.054687	0.810545	0.597838	-1.000000	-1.000000	-1.000000	-1.000000	-1.000000	-1.000000	-1.000000	14.344828	0.000000	-1.000000	-1.000000	356026.000000	1772914648.671538
3724.830000	90914.760000	-10742.265000	-25387.200000	0.000000	0.000000	0.000000	0.000000	15.133151	29.102225	5.587098	7.352199	-0.000000	0.000000	-0.000000	-0.000000	1.648080	1.617560	-0.244160	-0.054687	0.810545	0.597838	-1.000000	-1.000000	-1.000000	-1.000000	-1.000000	-1.000000	-1.000000	14.344828	0.000000	-1.000000	-1.000000	356027.000000	1772914648.675611
3713.490000	90893.835000	-10748.025000	-25392.060000	0.000000	0.000000	0.000000	0.000000	5.757397	17.131382	2.198105	1.292242	-0.000000	0.000000	-0.000000	-0.000000	1.648080	1.617560	-0.244160	-0.054687	0.810545	0.597838	-1.000000	-1.000000	-1.000000	-1.000000	-1.000000	-1.000000	-1.000000	14.344828	0.000000	-1.000000	-1.000000	356028.000000	1772914648.675614
3705.030000	90877.815000	-10755.630000	-25401.150000	0.000000	0.000000	0.000000	0.000000	-8.222221	-3.067670	-4.010153	-7.224688	-0.000000	0.000000	-0.000000	-0.000000	-1.861720	2.456860	-2.411080	-0.052673	0.820921	0.596861	-1.000000	-1.000000	-1.000000	-1.000000	-1.000000	-1.000000	-1.000000	14.344828	0.000000	-1.000000	-1.000000	356029.000000	1772914648.679622
3699.945000	90879.210000	-10761.435000	-25407.675000	0.000000	0.000000	0.000000	0.000000	-17.659958	-20.644444	-8.623029	-12.213669	-0.000000	0.000000	-0.000000	-0.000000	-1.861720	2.456860	-2.411080	-0.052673	0.820921	0.596861	-1.000000	-1.000000	-1.000000	-1.000000	-1.000000	-1.000000	-1.000000	14.344828	0.000000	-1.000000	-1.000000	356030.000000	1772914648.679625
3717.135000	90890.460000	-10751.580000	-25395.615000	0.000000	0.000000	0.000000	0.000000	-17.117361	-26.449636	-8.707086	-10.609199	-0.000000	0.000000	-0.000000	-0.000000	-1.861720	2.456860	-2.411080	-0.052673	0.820921	0.596861	-1.000000	-1.000000	-1.000000	-1.000000	-1.000000	-1.000000	-1.000000	14.344828	0.000000	-1.000000	-1.000000	356031.000000	1772914648.683609
3728.070000	90911.610000	-10746.180000	-25384.320000	0.000000	0.000000	0.000000	0.000000	-6.929534	-17.991827	-3.784498	-2.890808	-0.000000	0.000000	-0.000000	-0.000000	-1.861720	2.456860	-2.411080	-0.052673	0.820921	0.596861	-1.000000	-1.000000	-1.000000	-1.000000	-1.000000	-1.000000	-1.000000	14.344828	0.000000	-1.000000	-1.000000	356032.000000	1772914648.683614
3746.430000	90929.655000	-10731.330000	-25369.920000	0.000000	0.000000	0.000000	0.000000	7.640381	-0.423813	4.074875	7.604045	-0.000000	0.000000	-0.000000	-0.000000	-1.861720	2.456860	-2.411080	-0.052673	0.820921	0.596861	-1.000000	-1.000000	-1.000000	-1.000000	-1.000000	-1.000000	-1.000000	14.344828	0.000000	-1.000000	-1.000000	356033.000000	1772914648.687442
3747.420000	90935.730000	-10730.745000	-25369.875000	0.000000	0.000000	0.000000	0.000000	19.143570	16.628453	11.082860	15.795224	-0.000000	0.000000	-0.000000	-0.000000	-1.861720	2.456860	-2.411080	-0.052673	0.820921	0.596861	-1.000000	-1.000000	-1.000000	-1.000000	-1.000000	-1.000000	-1.000000	14.344828	0.000000	-1.000000	-1.000000	356034.000000	1772914648.687447
3735.405000	90922.905000	-10736.550000	-25376.220000	0.000000	0.000000	0.000000	0.000000	21.567476	24.105205	13.437709	17.163615	-0.000000	0.000000	-0.000000	-0.000000	-1.861720	2.456860	-2.411080	-0.052673	0.820921	0.596861	-1.000000	-1.000000	-1.000000	-1.000000	-1.000000	-1.000000	-1.000000	14.344828	0.000000	-1.000000	-1.000000	356035.000000	1772914648.691560
3722.400000	90898.920000	-10742.040000	-25381.710000	0.000000	0.000000	0.000000	0.000000	13.303975	18.001059	9.402308	10.493190	0.000000	0.000000	-0.000000	-0.000000	-1.861720	2.456860	-2.411080	-0.052673	0.820921	0.596861	-1.000000	-1.000000	-1.000000	-1.000000	-1.000000	-1.000000	-1.000000	14.344828	0.000000	-1.000000	-1.000000	356036.000000	1772914648.691565
3713.310000	90879.120000	-10744.335000	-25383.195000	0.000000	0.000000	0.000000	0.000000	-1.514046	1.546009	0.889765	-0.869540	0.000000	0.000000	-0.000000	-0.000000	-1.861720	2.456860	-2.411080	-0.052673	0.820921	0.596861	-1.000000	-1.000000	-1.000000	-1.000000	-1.000000	-1.000000	-1.000000	14.344828	0.000000	-1.000000	-1.000000	356037.000000	1772914648.704234
3717.585000	90876.870000	-10738.980000	-25378.470000	0.000000	0.000000	0.000000	0.000000	-14.940539	-16.120911	-7.399888	-10.899012	0.000000	0.000000	-0.000000	-0.000000	-1.861720	2.456860	-2.411080	-0.052673	0.820921	0.596861	-1.000000	-1.000000	-1.000000	-1.000000	-1.000000	-1.000000	-1.000000	14.344828	0.000000	-1.000000	-1.000000	356038.000000	1772914648.704238
3719.295000	90888.660000	-10742.175000	-25383.465000	0.000000	0.000000	0.000000	0.000000	-20.016704	-24.840113	-11.222595	-14.906439	0.000000	0.000000	-0.000000	-0.000000	-7.889420	0.503580	0.564620	-0.053284	0.823240	0.595335	-1.000000	-1.000000	-1.000000	-1.000000	-1.000000	-1.000000	-1.000000	14.344828	0.000000	-1.000000	-1.000000	356039.000000	1772914648.704244
3722.580000	90909.495000	-10747.305000	-25393.545000	0.000000	0.000000	0.000000	0.000000	-15.076679	-19.509836	-9.709836	-12.518428	0.000000	0.000000	-0.000000	-0.000000	-7.889420	0.503580	0.564620	-0.053284	0.823240	0.595335	-1.000000	-1.000000	-1.000000	-1.000000	-1.000000	-1.000000	-1.000000	14.344828	0.000000	-1.000000	-1.000000	356040.000000	1772914648.704246
3746.070000	90928.710000	-10731.555000	-25375.095000	0.000000	0.000000	0.000000	0.000000	-3.746701	-3.195548	-4.850507	-6.461188	0.000000	0.000000	-0.000000	-0.000000	-7.889420	0.503580	0.564620	-0.053284	0.823240	0.595335	-1.000000	-1.000000	-1.000000	-1.000000	-1.000000	-1.000000	-1.000000	14.344828	0.000000	-1.000000	-1.000000	356041.000000	1772914648.704249
3754.710000	90939.735000	-10726.920000	-25366.185000	0.000000	0.000000	0.000000	0.000000	8.459556	14.922987	1.152821	0.895153	0.000000	0.000000	-0.000000	-0.000000	-7.889420	0.503580	0.564620	-0.053284	0.823240	0.595335	-1.000000	-1.000000	-1.000000	-1.000000	-1.000000	-1.000000	-1.000000	14.344828	0.000000	-1.000000	-1.000000	356042.000000	1772914648.704251
3733.065000	90930.240000	-10739.880000	-25380.855000	0.000000	0.000000	0.000000	0.000000	15.913180	24.908836	6.047334	7.389507	0.000000	0.000000	-0.000000	-0.000000	-7.889420	0.503580	0.564620	-0.053284	0.823240	0.595335	-1.000000	-1.000000	-1.000000	-1.000000	-1.000000	-1.000000	-1.000000	14.344828	0.000000	-1.000000	-1.000000	356043.000000	1772914648.707507
3705.705000	90910.980000	-10756.035000	-25401.960000	0.000000	0.000000	0.000000	0.000000	13.978186	21.305920	6.961548	9.534236	0.000000	0.000000	-0.000000	-0.000000	-7.889420	0.503580	0.564620	-0.053284	0.823240	0.595335	-1.000000	-1.000000	-1.000000	-1.000000	-1.000000	-1.000000	-1.000000	14.344828	0.000000	-1.000000	-1.000000	356044.000000	1772914648.707513
3703.860000	90886.545000	-10750.995000	-25401.915000	0.000000	0.000000	0.000000	0.000000	3.057854	5.922716	3.120410	5.546046	0.000000	0.000000	-0.000000	-0.000000	-7.889420	0.503580	0.564620	-0.053284	0.823240	0.595335	-1.000000	-1.000000	-1.000000	-1.000000	-1.000000	-1.000000	-1.000000	14.344828	0.000000	-1.000000	-1.000000	356045.000000	1772914648.712319
3704.760000	90876.780000	-10749.555000	-25400.745000	0.000000	0.000000	0.000000	0.000000	-9.524483	-13.035101	-2.130918	-1.295309	0.000000	0.000000	-0.000000	-0.000000	-7.889420	0.503580	0.564620	-0.053284	0.823240	0.595335	-1.000000	-1.000000	-1.000000	-1.000000	-1.000000	-1.000000	-1.000000	14.344828	0.000000	-1.000000	-1.000000	356046.000000	1772914648.712324
3707.235000	90883.575000	-10751.580000	-25398.945000	0.000000	0.000000	0.000000	0.000000	-15.168219	-25.201968	-4.566978	-5.477374	0.000000	0.000000	-0.000000	-0.000000	-7.889420	0.503580	0.564620	-0.053284	0.823240	0.595335	-1.000000	-1.000000	-1.000000	-1.000000	-1.000000	-1.000000	-1.000000	14.344828	0.000000	-1.000000	-1.000000	356047.000000	1772914648.715687
3721.230000	90903.735000	-10746.585000	-25390.800000	0.000000	0.000000	0.000000	0.000000	-10.862148	-23.696121	-3.063153	-4.367413	0.000000	0.000000	-0.000000	-0.000000	-7.889420	0.503580	0.564620	-0.053284	0.823240	0.595335	-1.000000	-1.000000	-1.000000	-1.000000	-1.000000	-1.000000	-1.000000	14.344828	0.000000	-1.000000	-1.000000	356048.000000	1772914648.715692
3737.925000	90926.640000	-10737.990000	-25380.945000	0.000000	0.000000	0.000000	0.000000	0.150169	-9.138417	0.769475	0.693697	0.000000	0.000000	-0.000000	-0.000000	-12.726840	1.068200	1.358140	-0.050903	0.821531	0.594054	-1.000000	-1.000000	-1.000000	-1.000000	-1.000000	-1.000000	-1.000000	14.206897	0.000000	-1.000000	-1.000000	356049.000000	1772914648.719544
3746.205000	90942.840000	-10732.365000	-25372.935000	0.000000	0.000000	0.000000	0.000000	11.624558	10.627096	4.705680	6.363542	0.000000	0.000000	-0.000000	-0.000000	-12.726840	1.068200	1.358140	-0.050903	0.821531	0.594054	-1.000000	-1.000000	-1.000000	-1.000000	-1.000000	-1.000000	-1.000000	14.206897	0.000000	-1.000000	-1.000000	356050.000000	1772914648.719547
3733.785000	90933.570000	-10739.340000	-25380.945000	0.000000	0.000000	0.000000	0.000000	17.271603	24.801637	6.622979	9.142562	0.000000	0.000000	-0.000000	-0.000000	-12.726840	1.068200	1.358140	-0.050903	0.821531	0.594054	-1.000000	-1.000000	-1.000000	-1.000000	-1.000000	-1.000000	-1.000000	14.206897	0.000000	-1.000000	-1.000000	356051.000000	1772914648.723565
3717.495000	90912.330000	-10745.190000	-25390.575000	0.000000	0.000000	0.000000	0.000000	13.429678	25.339283	4.975208	6.776941	0.000000	0.000000	-0.000000	-0.000000	-12.726840	1.068200	1.358140	-0.050903	0.821531	0.594054	-1.000000	-1.000000	-1.000000	-1.000000	-1.000000	-1.000000	-1.000000	14.206897	0.000000	-1.000000	-1.000000	356052.000000	1772914648.723568
3706.335000	90889.650000	-10748.790000	-25397.820000	0.000000	0.000000	0.000000	0.000000	1.626204	11.654243	0.135847	-0.162047	0.000000	0.000000	-0.000000	-0.000000	-12.726840	1.068200	1.358140	-0.050903	0.821531	0.594054	-1.000000	-1.000000	-1.000000	-1.000000	-1.000000	-1.000000	-1.000000	14.206897	0.000000	-1.000000	-1.000000	356053.000000	1772914648.727595
3696.660000	90878.445000	-10754.235000	-25403.805000	0.000000	0.000000	0.000000	0.000000	-11.660409	-8.544822	-5.309246	-8.032792	0.000000	0.000000	-0.000000	-0.000000	-12.726840	1.068200	1.358140	-0.050903	0.821531	0.594054	-1.000000	-1.000000	-1.000000	-1.000000	-1.000000	-1.000000	-1.000000	14.206897	0.000000	-1.000000	-1.000000	356054.000000	1772914648.727598
3697.425000	90881.145000	-10756.305000	-25403.895000	0.000000	0.000000	0.000000	0.000000	-19.116297	-23.742350	-8.422059	-12.440780	0.000000	0.000000	-0.000000	-0.000000	-12.726840	1.068200	1.358140	-0.050903	0.821531	0.594054	-1.000000	-1.000000	-1.000000	-1.000000	-1.000000	-1.000000	-1.000000	14.206897	0.000000	-1.000000	-1.000000	356055.000000	1772914648.731622
3711.375000	90897.705000	-10750.815000	-25394.670000	0.000000	0.000000	0.000000	0.000000	-16.850250	-25.534610	-7.670853	-10.913117	0.000000	0.000000	-0.000000	-0.000000	-12.726840	1.068200	1.358140	-0.050903	0.821531	0.594054	-1.000000	-1.000000	-1.000000	-1.000000	-1.000000	-1.000000	-1.000000	14.206897	0.000000	-1.000000	-1.000000	356056.000000	1772914648.731626
3731.085000	90918.720000	-10740.150000	-25379.640000	0.000000	0.000000	0.000000	0.000000	-5.875017	-13.277007	-3.236143	-3.888754	0.000000	0.000000	-0.000000	-0.000000	-12.726840	1.068200	1.358140	-0.050903	0.821531	0.594054	-1.000000	-1.000000	-1.000000	-1.000000	-1.000000	-1.000000	-1.000000	14.206897	0.000000	-1.000000	-1.000000	356057.000000	1772914648.736830
3741.210000	90936.495000	-10733.445000	-25368.435000	0.000000	0.000000	0.000000	0.000000	8.514809	6.050327	3.124313	5.574829	0.000000	0.000000	-0.000000	-0.000000	-12.726840	1.068200	1.358140	-0.050903	0.821531	0.594054	-1.000000	-1.000000	-1.000000	-1.000000	-1.000000	-1.000000	-1.000000	14.206897	0.000000	-1.000000	-1.000000	356058.000000	1772914648.736832
3748.590000	90939.330000	-10724.355000	-25366.050000	0.000000	0.000000	0.000000	0.000000	19.089430	22.019249	8.550830	12.907435	0.000000	0.000000	-0.000000	-0.000000	-15.122660	2.197440	1.373400	-0.051941	0.815916	0.594847	-1.000000	-1.000000	-1.000000	-1.000000	-1.000000	-1.000000	-1.000000	14.206897	0.000000	-1.000000	-1.000000	356059.000000	1772914648.739626
3738.825000	90925.830000	-10726.470000	-25367.940000	0.000000	0.000000	0.000000	0.000000	20.419984	26.239718	10.391055	14.188992	0.000000	0.000000	-0.000000	-0.000000	-15.122660	2.197440	1.373400	-0.051941	0.815916	0.594847	-1.000000	-1.000000	-1.000000	-1.000000	-1.000000	-1.000000	-1.000000	14.206897	0.000000	-1.000000	-1.000000	356060.000000	1772914648.739629
3718.845000	90894.285000	-10736.460000	-25377.030000	0.000000	0.000000	0.000000	0.000000	11.563770	16.337732	7.393577	8.488571	0.000000	0.000000	-0.000000	-0.000000	-15.122660	2.197440	1.373400	-0.051941	0.815916	0.594847	-1.000000	-1.000000	-1.000000	-1.000000	-1.000000	-1.000000	-1.000000	14.206897	0.000000	-1.000000	-1.000000	356061.000000	1772914648.743600
3688.830000	90873.945000	-10762.875000	-25410.015000	0.000000	0.000000	0.000000	0.000000	-3.811406	-2.890744	0.058373	-1.959021	0.000000	0.000000	-0.000000	-0.000000	-15.122660	2.197440	1.373400	-0.051941	0.815916	0.594847	-1.000000	-1.000000	-1.000000	-1.000000	-1.000000	-1.000000	-1.000000	14.206897	0.000000	-1.000000	-1.000000	356062.000000	1772914648.743603
3693.960000	90873.270000	-10758.690000	-25407.135000	0.000000	0.000000	0.000000	0.000000	-18.580991	-21.255183	-8.857132	-12.899381	0.000000	0.000000	-0.000000	-0.000000	-15.122660	2.197440	1.373400	-0.051941	0.815916	0.594847	-1.000000	-1.000000	-1.000000	-1.000000	-1.000000	-1.000000	-1.000000	14.206897	0.000000	-1.000000	-1.000000	356063.000000	1772914648.748505
3708.810000	90888.300000	-10751.355000	-25394.580000	0.000000	0.000000	0.000000	0.000000	-24.478224	-28.240305	-14.249802	-18.507483	0.000000	0.000000	-0.000000	-0.000000	-15.122660	2.197440	1.373400	-0.051941	0.815916	0.594847	-1.000000	-1.000000	-1.000000	-1.000000	-1.000000	-1.000000	-1.000000	14.206897	0.000000	-1.000000	-1.000000	356064.000000	1772914648.748509
3720.645000	90912.960000	-10751.490000	-25386.435000	0.000000	0.000000	0.000000	0.000000	-17.223437	-19.472726	-12.077234	-14.406213	0.000000	0.000000	-0.000000	-0.000000	-15.122660	2.197440	1.373400	-0.051941	0.815916	0.594847	-1.000000	-1.000000	-1.000000	-1.000000	-1.000000	-1.000000	-1.000000	14.206897	0.000000	-1.000000	-1.000000	356065.000000	1772914648.751519
3729.870000	90941.805000	-10750.680000	-25379.100000	0.000000	0.000000	0.000000	0.000000	-0.738642	0.474658	-3.569101	-2.310027	0.000000	0.000000	-0.000000	-0.000000	-15.122660	2.197440	1.373400	-0.051941	0.815916	0.594847	-1.000000	-1.000000	-1.000000	-1.000000	-1.000000	-1.000000	-1.000000	14.206897	0.000000	-1.000000	-1.000000	356066.000000	1772914648.751522
3732.570000	90954.315000	-10752.615000	-25382.565000	0.000000	0.000000	0.000000	0.000000	15.395354	20.955440	5.889329	10.607206	0.000000	0.000000	-0.000000	-0.000000	-15.122660	2.197440	1.373400	-0.051941	0.815916	0.594847	-1.000000	-1.000000	-1.000000	-1.000000	-1.000000	-1.000000	-1.000000	14.206897	0.000000	-1.000000	-1.000000	356067.000000	1772914648.755610
3745.485000	90944.460000	-10736.055000	-25369.245000	0.000000	0.000000	0.000000	0.000000	22.979885	30.939339	11.644998	17.411206	0.000000	0.000000	-0.000000	-0.000000	-15.122660	2.197440	1.373400	-0.051941	0.815916	0.594847	-1.000000	-1.000000	-1.000000	-1.000000	-1.000000	-1.000000	-1.000000	14.206897	0.000000	-1.000000	-1.000000	356068.000000	1772914648.755613
3739.455000	90918.225000	-10728.315000	-25363.710000	0.000000	0.000000	0.000000	0.000000	19.784570	24.551265	12.645873	16.093084	0.000000	0.000000	-0.000000	-0.000000	-19.822740	2.792580	1.327620	-0.053528	0.811094	0.596495	-1.000000	-1.000000	-1.000000	-1.000000	-1.000000	-1.000000	-1.000000	14.206897	0.000000	-1.000000	-1.000000	356069.000000	1772914648.759505
3730.455000	90892.395000	-10727.640000	-25371.495000	0.000000	0.000000	0.000000	0.000000	8.702908	4.467847	10.039245	9.007473	0.000000	0.000000	-0.000000	-0.000000	-19.822740	2.792580	1.327620	-0.053528	0.811094	0.596495	-1.000000	-1.000000	-1.000000	-1.000000	-1.000000	-1.000000	-1.000000	14.206897	0.000000	-1.000000	-1.000000	356070.000000	1772914648.759509
3719.880000	90878.760000	-10735.695000	-25380.495000	0.000000	0.000000	0.000000	0.000000	-5.132119	-18.968648	4.751687	-0.548496	0.000000	0.000000	-0.000000	-0.000000	-19.822740	2.792580	1.327620	-0.053528	0.811094	0.596495	-1.000000	-1.000000	-1.000000	-1.000000	-1.000000	-1.000000	-1.000000	14.206897	0.000000	-1.000000	-1.000000	356071.000000	1772914648.763579
3698.460000	90886.770000	-10761.030000	-25396.605000	0.000000	0.000000	0.000000	0.000000	-16.460922	-33.166133	-2.686503	-9.684039	0.000000	0.000000	-0.000000	-0.000000	-19.822740	2.792580	1.327620	-0.053528	0.811094	0.596495	-1.000000	-1.000000	-1.000000	-1.000000	-1.000000	-1.000000	-1.000000	14.206897	0.000000	-1.000000	-1.000000	356072.000000	1772914648.763581
3686.625000	90910.170000	-10779.615000	-25408.485000	0.000000	0.000000	0.000000	0.000000	-21.687963	-30.242774	-11.005702	-15.781161	0.000000	0.000000	-0.000000	-0.000000	-19.822740	2.792580	1.327620	-0.053528	0.811094	0.596495	-1.000000	-1.000000	-1.000000	-1.000000	-1.000000	-1.000000	-1.000000	14.206897	0.000000	-1.000000	-1.000000	356073.000000	1772914648.767554
3716.100000	90941.085000	-10759.995000	-25386.750000	0.000000	0.000000	0.000000	0.000000	-18.883755	-11.410899	-16.696442	-16.330290	0.000000	0.000000	-0.000000	-0.000000	-19.822740	2.792580	1.327620	-0.053528	0.811094	0.596495	-1.000000	-1.000000	-1.000000	-1.000000	-1.000000	-1.000000	-1.000000	14.206897	0.000000	-1.000000	-1.000000	356074.000000	1772914648.767558
3744.180000	90960.030000	-10733.130000	-25357.905000	0.000000	0.000000	0.000000	0.000000	-7.358291	13.636361	-14.623189	-9.321859	0.000000	0.000000	-0.000000	-0.000000	-19.822740	2.792580	1.327620	-0.053528	0.811094	0.596495	-1.000000	-1.000000	-1.000000	-1.000000	-1.000000	-1.000000	-1.000000	14.206897	0.000000	-1.000000	-1.000000	356075.000000	1772914648.771647
3762.045000	90955.890000	-10716.750000	-25344.945000	0.000000	0.000000	0.000000	0.000000	9.699687	31.733684	-3.194046	3.908922	0.000000	0.000000	-0.000000	-0.000000	-19.822740	2.792580	1.327620	-0.053528	0.811094	0.596495	-1.000000	-1.000000	-1.000000	-1.000000	-1.000000	-1.000000	-1.000000	14.206897	0.000000	-1.000000	-1.000000	356076.000000	1772914648.771650
3731.625000	90930.105000	-10742.265000	-25374.240000	0.000000	0.000000	0.000000	0.000000	23.404805	33.043489	11.219608	16.161424	0.000000	0.000000	-0.000000	-0.000000	-19.822740	2.792580	1.327620	-0.053528	0.811094	0.596495	-1.000000	-1.000000	-1.000000	-1.000000	-1.000000	-1.000000	-1.000000	14.206897	0.000000	-1.000000	-1.000000	356077.000000	1772914648.775573
3704.850000	90902.970000	-10757.295000	-25395.570000	0.000000	0.000000	0.000000	0.000000	24.000355	16.566509	18.107684	18.307821	0.000000	0.000000	-0.000000	-0.000000	-19.822740	2.792580	1.327620	-0.053528	0.811094	0.596495	-1.000000	-1.000000	-1.000000	-1.000000	-1.000000	-1.000000	-1.000000	14.206897	0.000000	-1.000000	-1.000000	356078.000000	1772914648.775576
3701.025000	90882.945000	-10754.730000	-25395.480000	0.000000	0.000000	0.000000	0.000000	9.959251	-8.832920	12.797326	8.228462	0.000000	0.000000	-0.000000	-0.000000	-23.149420	3.494540	0.656180	-0.055176	0.804746	0.600768	-1.000000	-1.000000	-1.000000	-1.000000	-1.000000	-1.000000	-1.000000	14.206897	0.000000	-1.000000	-1.000000	356079.000000	1772914648.779579
3690.495000	90882.855000	-10769.490000	-25408.755000	0.000000	0.000000	0.000000	0.000000	-9.263825	-29.289829	0.499345	-6.451133	0.000000	0.000000	-0.000000	-0.000000	-23.149420	3.494540	0.656180	-0.055176	0.804746	0.600768	-1.000000	-1.000000	-1.000000	-1.000000	-1.000000	-1.000000	-1.000000	14.206897	0.000000	-1.000000	-1.000000	356080.000000	1772914648.779582
3697.515000	90906.885000	-10772.730000	-25405.245000	0.000000	0.000000	0.000000	0.000000	-21.373767	-33.700468	-10.151166	-15.856719	0.000000	0.000000	-0.000000	-0.000000	-23.149420	3.494540	0.656180	-0.055176	0.804746	0.600768	-1.000000	-1.000000	-1.000000	-1.000000	-1.000000	-1.000000	-1.000000	14.206897	0.000000	-1.000000	-1.000000	356081.000000	1772914648.783587
3733.290000	90942.660000	-10746.720000	-25373.070000	0.000000	0.000000	0.000000	0.000000	-19.766688	-19.541545	-13.386836	-14.746646	0.000000	0.000000	-0.000000	-0.000000	-23.149420	3.494540	0.656180	-0.055176	0.804746	0.600768	-1.000000	-1.000000	-1.000000	-1.000000	-1.000000	-1.000000	-1.000000	14.206897	0.000000	-1.000000	-1.000000	356082.000000	1772914648.783590
3746.385000	90968.130000	-10739.745000	-25359.885000	0.000000	0.000000	0.000000	0.000000	-5.888663	5.764937	-7.761729	-3.813462	0.000000	0.000000	-0.000000	-0.000000	-23.149420	3.494540	0.656180	-0.055176	0.804746	0.600768	-1.000000	-1.000000	-1.000000	-1.000000	-1.000000	-1.000000	-1.000000	14.206897	0.000000	-1.000000	-1.000000	356083.000000	1772914648.787567
3732.390000	90970.875000	-10750.725000	-25368.570000	0.000000	0.000000	0.000000	0.000000	11.251512	28.423743	2.647001	10.192815	0.000000	0.000000	-0.000000	-0.000000	-23.149420	3.494540	0.656180	-0.055176	0.804746	0.600768	-1.000000	-1.000000	-1.000000	-1.000000	-1.000000	-1.000000	-1.000000	14.206897	0.000000	-1.000000	-1.000000	356084.000000	1772914648.787569
3727.035000	90954.720000	-10747.530000	-25369.335000	0.000000	0.000000	0.000000	0.000000	20.145716	35.718657	10.282226	17.855382	0.000000	0.000000	-0.000000	-0.000000	-23.149420	3.494540	0.656180	-0.055176	0.804746	0.600768	-1.000000	-1.000000	-1.000000	-1.000000	-1.000000	-1.000000	-1.000000	14.206897	0.000000	-1.000000	-1.000000	356085.000000	1772914648.791652
3713.130000	90926.640000	-10752.120000	-25380.855000	0.000000	0.000000	0.000000	0.000000	15.645201	23.414996	10.624560	14.436255	0.000000	0.000000	-0.000000	-0.000000	-23.149420	3.494540	0.656180	-0.055176	0.804746	0.600768	-1.000000	-1.000000	-1.000000	-1.000000	-1.000000	-1.000000	-1.000000	14.206897	0.000000	-1.000000	-1.000000	356086.000000	1772914648.791656
3690.405000	90900.450000	-10766.835000	-25400.745000	0.000000	0.000000	0.000000	0.000000	1.803281	-1.846142	4.761292	2.646616	0.000000	0.000000	-0.000000	-0.000000	-23.149420	3.494540	0.656180	-0.055176	0.804746	0.600768	-1.000000	-1.000000	-1.000000	-1.000000	-1.000000	-1.000000	-1.000000	14.206897	0.000000	-1.000000	-1.000000	356087.000000	1772914648.795622
3683.385000	90892.755000	-10773.900000	-25407.990000	0.000000	0.000000	0.000000	0.000000	-12.844326	-26.490486	-3.430245	-10.725779	0.000000	0.000000	-0.000000	-0.000000	-23.149420	3.494540	0.656180	-0.055176	0.804746	0.600768	-1.000000	-1.000000	-1.000000	-1.000000	-1.000000	-1.000000	-1.000000	14.206897	0.000000	-1.000000	-1.000000	356088.000000	1772914648.795625
3698.460000	90905.805000	-10768.590000	-25395.165000	0.000000	0.000000	0.000000	0.000000	-20.144162	-37.399721	-9.548616	-18.464062	0.000000	0.000000	-0.000000	-0.000000	-22.920520	2.899400	0.763000	-0.056579	0.798216	0.605833	-1.000000	-1.000000	-1.000000	-1.000000	-1.000000	-1.000000	-1.000000	14.206897	0.000000	-1.000000	-1.000000	356089.000000	1772914648.799726
3728.835000	90936.045000	-10750.950000	-25371.900000	0.000000	0.000000	0.000000	0.000000	-15.496381	-28.754089	-9.931246	-15.846223	0.000000	0.000000	-0.000000	-0.000000	-22.920520	2.899400	0.763000	-0.056579	0.798216	0.605833	-1.000000	-1.000000	-1.000000	-1.000000	-1.000000	-1.000000	-1.000000	14.206897	0.000000	-1.000000	-1.000000	356090.000000	1772914648.799728
3754.485000	90969.210000	-10735.245000	-25349.670000	0.000000	0.000000	0.000000	0.000000	-0.580967	-4.945643	-3.746960	-3.614245	0.000000	0.000000	-0.000000	-0.000000	-22.920520	2.899400	0.763000	-0.056579	0.798216	0.605833	-1.000000	-1.000000	-1.000000	-1.000000	-1.000000	-1.000000	-1.000000	14.206897	0.000000	-1.000000	-1.000000	356091.000000	1772914648.805801
3748.545000	90984.060000	-10741.590000	-25353.855000	0.000000	0.000000	0.000000	0.000000	16.188359	21.724159	5.410207	11.322195	0.000000	0.000000	-0.000000	-0.000000	-22.920520	2.899400	0.763000	-0.056579	0.798216	0.605833	-1.000000	-1.000000	-1.000000	-1.000000	-1.000000	-1.000000	-1.000000	14.206897	0.000000	-1.000000	-1.000000	356092.000000	1772914648.805805
3720.420000	90972.585000	-10762.065000	-25379.145000	0.000000	0.000000	0.000000	0.000000	23.704168	37.174925	10.922091	19.267870	0.000000	0.000000	-0.000000	-0.000000	-22.920520	2.899400	0.763000	-0.056579	0.798216	0.605833	-1.000000	-1.000000	-1.000000	-1.000000	-1.000000	-1.000000	-1.000000	14.206897	0.000000	-1.000000	-1.000000	356093.000000	1772914648.809022
3687.660000	90947.025000	-10784.790000	-25407.450000	0.000000	0.000000	0.000000	0.000000	15.735464	32.933212	8.003973	14.204884	0.000000	0.000000	-0.000000	-0.000000	-22.920520	2.899400	0.763000	-0.056579	0.798216	0.605833	-1.000000	-1.000000	-1.000000	-1.000000	-1.000000	-1.000000	-1.000000	14.206897	0.000000	-1.000000	-1.000000	356094.000000	1772914648.809025
3683.025000	90919.395000	-10782.720000	-25409.430000	0.000000	0.000000	0.000000	0.000000	-3.376026	11.151590	-1.650251	-0.882583	0.000000	0.000000	-0.000000	-0.000000	-22.920520	2.899400	0.763000	-0.056579	0.798216	0.605833	-1.000000	-1.000000	-1.000000	-1.000000	-1.000000	-1.000000	-1.000000	14.206897	0.000000	-1.000000	-1.000000	356095.000000	1772914648.814084
3687.615000	90903.105000	-10777.140000	-25405.290000	0.000000	0.000000	0.000000	0.000000	-20.911453	-16.378235	-10.553751	-15.390985	0.000000	0.000000	-0.000000	-0.000000	-22.920520	2.899400	0.763000	-0.056579	0.798216	0.605833	-1.000000	-1.000000	-1.000000	-1.000000	-1.000000	-1.000000	-1.000000	14.206897	0.000000	-1.000000	-1.000000	356096.000000	1772914648.814087
3696.660000	90907.740000	-10769.895000	-25399.530000	0.000000	0.000000	0.000000	0.000000	-25.392800	-34.941484	-11.844892	-19.482404	0.000000	0.000000	-0.000000	-0.000000	-22.920520	2.899400	0.763000	-0.056579	0.798216	0.605833	-1.000000	-1.000000	-1.000000	-1.000000	-1.000000	-1.000000	-1.000000	14.206897	0.000000	-1.000000	-1.000000	356097.000000	1772914648.817181
3723.885000	90935.145000	-10753.110000	-25371.045000	0.000000	0.000000	0.000000	0.000000	-14.596985	-34.839924	-4.728005	-11.076183	0.000000	0.000000	-0.000000	-0.000000	-22.920520	2.899400	0.763000	-0.056579	0.798216	0.605833	-1.000000	-1.000000	-1.000000	-1.000000	-1.000000	-1.000000	-1.000000	14.206897	0.000000	-1.000000	-1.000000	356098.000000	1772914648.817184
3756.060000	90964.125000	-10731.555000	-25339.095000	0.000000	0.000000	0.000000	0.000000	4.935702	-16.295452	6.325213	4.795098	0.000000	0.000000	-0.000000	-0.000000	-22.386420	2.929920	-0.213640	-0.055908	0.792906	0.612608	-1.000000	-1.000000	-1.000000	-1.000000	-1.000000	-1.000000	-1.000000	14.206897	0.000000	-1.000000	-1.000000	356099.000000	1772914648.820264
3755.385000	90978.705000	-10737.765000	-25340.490000	0.000000	0.000000	0.000000	0.000000	22.733720	10.563805	15.071920	19.654499	0.000000	0.000000	-0.000000	-0.000000	-22.386420	2.929920	-0.213640	-0.055908	0.792906	0.612608	-1.000000	-1.000000	-1.000000	-1.000000	-1.000000	-1.000000	-1.000000	14.206897	0.000000	-1.000000	-1.000000	356100.000000	1772914648.820266
3725.505000	90971.280000	-10765.305000	-25371.720000	0.000000	0.000000	0.000000	0.000000	28.583076	30.978613	15.777819	24.378922	0.000000	0.000000	-0.000000	-0.000000	-22.386420	2.929920	-0.213640	-0.055908	0.792906	0.612608	-1.000000	-1.000000	-1.000000	-1.000000	-1.000000	-1.000000	-1.000000	14.206897	0.000000	-1.000000	-1.000000	356101.000000	1772914648.823475
3703.635000	90950.400000	-10779.390000	-25396.020000	0.000000	0.000000	0.000000	0.000000	17.824657	33.921593	6.385523	14.185077	0.000000	0.000000	-0.000000	-0.000000	-22.386420	2.929920	-0.213640	-0.055908	0.792906	0.612608	-1.000000	-1.000000	-1.000000	-1.000000	-1.000000	-1.000000	-1.000000	14.206897	0.000000	-1.000000	-1.000000	356102.000000	1772914648.823477
3689.190000	90922.095000	-10784.025000	-25410.015000	0.000000	0.000000	0.000000	0.000000	-3.995475	18.409302	-8.264668	-6.131467	0.000000	0.000000	-0.000000	-0.000000	-22.386420	2.929920	-0.213640	-0.055908	0.792906	0.612608	-1.000000	-1.000000	-1.000000	-1.000000	-1.000000	-1.000000	-1.000000	14.206897	0.000000	-1.000000	-1.000000	356103.000000	1772914648.827501
3685.410000	90902.070000	-10784.340000	-25414.065000	0.000000	0.000000	0.000000	0.000000	-23.934450	-6.416366	-18.981506	-24.326823	0.000000	0.000000	-0.000000	-0.000000	-22.386420	2.929920	-0.213640	-0.055908	0.792906	0.612608	-1.000000	-1.000000	-1.000000	-1.000000	-1.000000	-1.000000	-1.000000	14.206897	0.000000	-1.000000	-1.000000	356104.000000	1772914648.827504
3710.700000	90902.745000	-10765.440000	-25396.290000	0.000000	0.000000	0.000000	0.000000	-30.371974	-26.829609	-19.090334	-29.369788	0.000000	0.000000	-0.000000	-0.000000	-22.386420	2.929920	-0.213640	-0.055908	0.792906	0.612608	-1.000000	-1.000000	-1.000000	-1.000000	-1.000000	-1.000000	-1.000000	14.206897	0.000000	-1.000000	-1.000000	356105.000000	1772914648.831634
3717.315000	90920.205000	-10770.345000	-25394.490000	0.000000	0.000000	0.000000	0.000000	-20.042237	-31.953165	-8.826249	-18.620721	0.000000	0.000000	-0.000000	-0.000000	-22.386420	2.929920	-0.213640	-0.055908	0.792906	0.612608	-1.000000	-1.000000	-1.000000	-1.000000	-1.000000	-1.000000	-1.000000	14.206897	0.000000	-1.000000	-1.000000	356106.000000	1772914648.831637
3729.240000	90947.610000	-10770.165000	-25383.825000	0.000000	0.000000	0.000000	0.000000	0.257764	-19.397689	5.092021	1.060317	0.000000	0.000000	-0.000000	-0.000000	-22.386420	2.929920	-0.213640	-0.055908	0.792906	0.612608	-1.000000	-1.000000	-1.000000	-1.000000	-1.000000	-1.000000	-1.000000	14.206897	0.000000	-1.000000	-1.000000	356107.000000	1772914648.836976
3749.220000	90972.810000	-10757.340000	-25365.195000	0.000000	0.000000	0.000000	0.000000	18.911720	3.762994	14.780477	18.919308	0.000000	0.000000	-0.000000	-0.000000	-22.386420	2.929920	-0.213640	-0.055908	0.792906	0.612608	-1.000000	-1.000000	-1.000000	-1.000000	-1.000000	-1.000000	-1.000000	14.206897	0.000000	-1.000000	-1.000000	356108.000000	1772914648.836980
3750.525000	90976.770000	-10752.840000	-25360.605000	0.000000	0.000000	0.000000	0.000000	27.374923	25.007910	16.892902	27.393071	0.000000	0.000000	-0.000000	-0.000000	-22.783180	5.035800	-1.129240	-0.053100	0.789549	0.614073	-1.000000	-1.000000	-1.000000	-1.000000	-1.000000	-1.000000	-1.000000	14.206897	0.000000	-1.000000	-1.000000	356109.000000	1772914648.840794
3730.635000	90958.095000	-10762.560000	-25374.825000	0.000000	0.000000	0.000000	0.000000	22.946245	32.812014	12.437922	24.096384	0.000000	0.000000	-0.000000	-0.000000	-22.783180	5.035800	-1.129240	-0.053100	0.789549	0.614073	-1.000000	-1.000000	-1.000000	-1.000000	-1.000000	-1.000000	-1.000000	14.206897	0.000000	-1.000000	-1.000000	356110.000000	1772914648.840796
3704.760000	90928.305000	-10780.380000	-25400.115000	0.000000	0.000000	0.000000	0.000000	7.789732	22.644530	3.631678	10.641214	0.000000	0.000000	-0.000000	-0.000000	-22.783180	5.035800	-1.129240	-0.053100	0.789549	0.614073	-1.000000	-1.000000	-1.000000	-1.000000	-1.000000	-1.000000	-1.000000	14.206897	0.000000	-1.000000	-1.000000	356111.000000	1772914648.843518
3702.510000	90905.760000	-10776.015000	-25401.825000	0.000000	0.000000	0.000000	0.000000	-11.297087	-0.197672	-6.455749	-7.421373	0.000000	0.000000	-0.000000	-0.000000	-22.783180	5.035800	-1.129240	-0.053100	0.789549	0.614073	-1.000000	-1.000000	-1.000000	-1.000000	-1.000000	-1.000000	-1.000000	14.206897	0.000000	-1.000000	-1.000000	356112.000000	1772914648.843521
3695.220000	90898.290000	-10784.115000	-25408.530000	0.000000	0.000000	0.000000	0.000000	-24.767954	-23.182721	-13.459741	-21.571927	0.000000	0.000000	-0.000000	-0.000000	-22.783180	5.035800	-1.129240	-0.053100	0.789549	0.614073	-1.000000	-1.000000	-1.000000	-1.000000	-1.000000	-1.000000	-1.000000	14.206897	0.000000	-1.000000	-1.000000	356113.000000	1772914648.847661
3698.865000	90911.115000	-10787.220000	-25406.865000	0.000000	0.000000	0.000000	0.000000	-25.965235	-33.651019	-14.283026	-25.065131	0.000000	0.000000	-0.000000	-0.000000	-22.783180	5.035800	-1.129240	-0.053100	0.789549	0.614073	-1.000000	-1.000000	-1.000000	-1.000000	-1.000000	-1.000000	-1.000000	14.206897	0.000000	-1.000000	-1.000000	356114.000000	1772914648.847663
3739.365000	90940.365000	-10756.890000	-25368.930000	0.000000	0.000000	0.000000	0.000000	-14.640315	-25.901880	-8.842280	-16.653865	0.000000	0.000000	-0.000000	-0.000000	-22.783180	5.035800	-1.129240	-0.053100	0.789549	0.614073	-1.000000	-1.000000	-1.000000	-1.000000	-1.000000	-1.000000	-1.000000	14.206897	0.000000	-1.000000	-1.000000	356115.000000	1772914648.851591
3762.225000	90967.905000	-10740.150000	-25348.050000	0.000000	0.000000	0.000000	0.000000	4.323376	-4.075740	1.116672	-0.027234	0.000000	0.000000	-0.000000	-0.000000	-22.783180	5.035800	-1.129240	-0.053100	0.789549	0.614073	-1.000000	-1.000000	-1.000000	-1.000000	-1.000000	-1.000000	-1.000000	14.206897	0.000000	-1.000000	-1.000000	356116.000000	1772914648.851593
3743.370000	90977.535000	-10756.620000	-25362.900000	0.000000	0.000000	0.000000	0.000000	21.833992	20.093593	11.308045	16.716804	0.000000	0.000000	-0.000000	-0.000000	-22.783180	5.035800	-1.129240	-0.053100	0.789549	0.614073	-1.000000	-1.000000	-1.000000	-1.000000	-1.000000	-1.000000	-1.000000	14.206897	0.000000	-1.000000	-1.000000	356117.000000	1772914648.857010
3704.445000	90966.420000	-10792.845000	-25396.920000	0.000000	0.000000	0.000000	0.000000	26.986656	33.431123	14.688195	23.208579	-0.000000	0.000000	-0.000000	-0.000000	-22.783180	5.035800	-1.129240	-0.053100	0.789549	0.614073	-1.000000	-1.000000	-1.000000	-1.000000	-1.000000	-1.000000	-1.000000	14.206897	0.000000	-1.000000	-1.000000	356118.000000	1772914648.857014
3697.695000	90939.105000	-10792.980000	-25403.625000	0.000000	0.000000	0.000000	0.000000	15.398349	28.552670	7.514737	14.604344	-0.000000	0.000000	-0.000000	-0.000000	-27.590080	6.348160	0.061040	-0.050903	0.788267	0.614806	-1.000000	-1.000000	-1.000000	-1.000000	-1.000000	-1.000000	-1.000000	14.206897	0.000000	-1.000000	-1.000000	356119.000000	1772914648.859563
3695.085000	90908.055000	-10785.195000	-25406.865000	0.000000	0.000000	0.000000	0.000000	-4.979476	7.995477	-4.889426	-2.756242	-0.000000	0.000000	-0.000000	-0.000000	-27.590080	6.348160	0.061040	-0.050903	0.788267	0.614806	-1.000000	-1.000000	-1.000000	-1.000000	-1.000000	-1.000000	-1.000000	14.206897	0.000000	-1.000000	-1.000000	356120.000000	1772914648.859566
3689.460000	90893.025000	-10787.535000	-25411.770000	0.000000	0.000000	0.000000	0.000000	-20.356561	-17.187549	-12.739415	-16.735669	-0.000000	0.000000	-0.000000	-0.000000	-27.590080	6.348160	0.061040	-0.050903	0.788267	0.614806	-1.000000	-1.000000	-1.000000	-1.000000	-1.000000	-1.000000	-1.000000	14.206897	0.000000	-1.000000	-1.000000	356121.000000	1772914648.863302
3690.855000	90905.310000	-10792.620000	-25410.240000	0.000000	0.000000	0.000000	0.000000	-22.573432	-33.228746	-11.480472	-19.577101	-0.000000	0.000000	-0.000000	-0.000000	-27.590080	6.348160	0.061040	-0.050903	0.788267	0.614806	-1.000000	-1.000000	-1.000000	-1.000000	-1.000000	-1.000000	-1.000000	14.206897	0.000000	-1.000000	-1.000000	356122.000000	1772914648.863304
3714.975000	90932.805000	-10778.355000	-25393.365000	0.000000	0.000000	0.000000	0.000000	-12.524342	-31.004691	-3.830438	-11.479922	-0.000000	0.000000	-0.000000	-0.000000	-27.590080	6.348160	0.061040	-0.050903	0.788267	0.614806	-1.000000	-1.000000	-1.000000	-1.000000	-1.000000	-1.000000	-1.000000	14.206897	0.000000	-1.000000	-1.000000	356123.000000	1772914648.867628
3740.490000	90960.345000	-10761.075000	-25372.845000	0.000000	0.000000	0.000000	0.000000	3.799539	-11.480429	5.381134	2.429981	-0.000000	0.000000	-0.000000	-0.000000	-27.590080	6.348160	0.061040	-0.050903	0.788267	0.614806	-1.000000	-1.000000	-1.000000	-1.000000	-1.000000	-1.000000	-1.000000	14.206897	0.000000	-1.000000	-1.000000	356124.000000	1772914648.867631
3757.140000	90978.165000	-10747.980000	-25357.005000	0.000000	0.000000	0.000000	0.000000	18.912174	14.513760	12.549685	15.577047	-0.000000	0.000000	-0.000000	-0.000000	-27.590080	6.348160	0.061040	-0.050903	0.788267	0.614806	-1.000000	-1.000000	-1.000000	-1.000000	-1.000000	-1.000000	-1.000000	14.206897	0.000000	-1.000000	-1.000000	356125.000000	1772914648.871624
3750.885000	90973.305000	-10749.240000	-25359.165000	0.000000	0.000000	0.000000	0.000000	25.690721	32.604594	14.989245	21.967342	-0.000000	0.000000	-0.000000	-0.000000	-27.590080	6.348160	0.061040	-0.050903	0.788267	0.614806	-1.000000	-1.000000	-1.000000	-1.000000	-1.000000	-1.000000	-1.000000	14.206897	0.000000	-1.000000	-1.000000	356126.000000	1772914648.871627
3721.680000	90946.755000	-10765.935000	-25380.945000	0.000000	0.000000	0.000000	0.000000	19.769437	32.910189	10.831467	17.945197	-0.000000	0.000000	-0.000000	-0.000000	-27.590080	6.348160	0.061040	-0.050903	0.788267	0.614806	-1.000000	-1.000000	-1.000000	-1.000000	-1.000000	-1.000000	-1.000000	14.206897	0.000000	-1.000000	-1.000000	356127.000000	1772914648.875572
3693.330000	90917.235000	-10781.145000	-25404.120000	0.000000	0.000000	0.000000	0.000000	2.393160	15.208025	0.541784	4.179520	-0.000000	0.000000	-0.000000	-0.000000	-27.590080	6.348160	0.061040	-0.050903	0.788267	0.614806	-1.000000	-1.000000	-1.000000	-1.000000	-1.000000	-1.000000	-1.000000	14.206897	0.000000	-1.000000	-1.000000	356128.000000	1772914648.875576
3675.240000	90895.185000	-10793.430000	-25419.915000	0.000000	0.000000	0.000000	0.000000	-18.588460	-10.946300	-11.819524	-13.369459	-0.000000	0.000000	-0.000000	-0.000000	-29.619660	7.523180	1.724380	-0.051758	0.791441	0.620299	-1.000000	-1.000000	-1.000000	-1.000000	-1.000000	-1.000000	-1.000000	14.206897	0.000000	-1.000000	-1.000000	356129.000000	1772914648.882468
3679.560000	90892.395000	-10792.395000	-25419.105000	0.000000	0.000000	0.000000	0.000000	-31.990647	-31.440631	-19.997338	-25.675051	-0.000000	0.000000	-0.000000	-0.000000	-29.619660	7.523180	1.724380	-0.051758	0.791441	0.620299	-1.000000	-1.000000	-1.000000	-1.000000	-1.000000	-1.000000	-1.000000	14.206897	0.000000	-1.000000	-1.000000	356130.000000	1772914648.882470
3696.975000	90918.180000	-10787.580000	-25407.720000	0.000000	0.000000	0.000000	0.000000	-29.771665	-35.205336	-19.264542	-25.728441	-0.000000	0.000000	-0.000000	-0.000000	-29.619660	7.523180	1.724380	-0.051758	0.791441	0.620299	-1.000000	-1.000000	-1.000000	-1.000000	-1.000000	-1.000000	-1.000000	14.206897	0.000000	-1.000000	-1.000000	356131.000000	1772914648.883645
3708.225000	90948.510000	-10792.035000	-25400.340000	0.000000	0.000000	0.000000	0.000000	-12.424997	-19.932948	-9.805860	-13.125650	-0.000000	0.000000	-0.000000	-0.000000	-29.619660	7.523180	1.724380	-0.051758	0.791441	0.620299	-1.000000	-1.000000	-1.000000	-1.000000	-1.000000	-1.000000	-1.000000	14.206897	0.000000	-1.000000	-1.000000	356132.000000	1772914648.883648
3731.805000	90971.640000	-10777.905000	-25380.135000	0.000000	0.000000	0.000000	0.000000	11.082356	6.421131	3.381297	5.615830	-0.000000	0.000000	-0.000000	-0.000000	-29.619660	7.523180	1.724380	-0.051758	0.791441	0.620299	-1.000000	-1.000000	-1.000000	-1.000000	-1.000000	-1.000000	-1.000000	14.206897	0.000000	-1.000000	-1.000000	356133.000000	1772914648.887642
3745.710000	90977.985000	-10759.500000	-25362.405000	0.000000	0.000000	0.000000	0.000000	29.283839	29.654405	14.568834	21.604873	-0.000000	0.000000	-0.000000	-0.000000	-29.619660	7.523180	1.724380	-0.051758	0.791441	0.620299	-1.000000	-1.000000	-1.000000	-1.000000	-1.000000	-1.000000	-1.000000	14.206897	0.000000	-1.000000	-1.000000	356134.000000	1772914648.887645
3724.515000	90958.680000	-10769.040000	-25377.120000	0.000000	0.000000	0.000000	0.000000	34.044226	37.217039	20.029960	27.996266	-0.000000	0.000000	-0.000000	-0.000000	-29.619660	7.523180	1.724380	-0.051758	0.791441	0.620299	-1.000000	-1.000000	-1.000000	-1.000000	-1.000000	-1.000000	-1.000000	14.206897	0.000000	-1.000000	-1.000000	356135.000000	1772914648.891606
3700.980000	90926.010000	-10782.135000	-25395.525000	0.000000	0.000000	0.000000	0.000000	22.960347	24.942685	17.520572	21.671377	-0.000000	0.000000	-0.000000	-0.000000	-29.619660	7.523180	1.724380	-0.051758	0.791441	0.620299	-1.000000	-1.000000	-1.000000	-1.000000	-1.000000	-1.000000	-1.000000	14.206897	0.000000	-1.000000	-1.000000	356136.000000	1772914648.891609
3683.295000	90896.355000	-10795.815000	-25416.180000	0.000000	0.000000	0.000000	0.000000	0.925605	-0.864010	7.294045	4.934066	-0.000000	0.000000	-0.000000	-0.000000	-29.619660	7.523180	1.724380	-0.051758	0.791441	0.620299	-1.000000	-1.000000	-1.000000	-1.000000	-1.000000	-1.000000	-1.000000	14.206897	0.000000	-1.000000	-1.000000	356137.000000	1772914648.895607
3678.120000	90889.605000	-10802.070000	-25423.830000	0.000000	0.000000	0.000000	0.000000	-20.948713	-26.543136	-6.152830	-14.167810	-0.000000	0.000000	-0.000000	-0.000000	-29.619660	7.523180	1.724380	-0.051758	0.791441	0.620299	-1.000000	-1.000000	-1.000000	-1.000000	-1.000000	-1.000000	-1.000000	14.206897	0.000000	-1.000000	-1.000000	356138.000000	1772914648.895611
3698.055000	90907.020000	-10789.425000	-25405.695000	0.000000	0.000000	0.000000	0.000000	-31.205820	-38.134877	-15.783367	-25.563735	-0.000000	0.000000	-0.000000	-0.000000	-30.199540	5.264700	-1.510740	-0.058166	0.793577	0.631651	-1.000000	-1.000000	-1.000000	-1.000000	-1.000000	-1.000000	-1.000000	14.206897	0.000000	-1.000000	-1.000000	356139.000000	1772914648.899687
3736.080000	90937.530000	-10761.795000	-25370.145000	0.000000	0.000000	0.000000	0.000000	-24.371938	-29.097745	-16.017316	-22.608442	-0.000000	0.000000	-0.000000	-0.000000	-30.199540	5.264700	-1.510740	-0.058166	0.793577	0.631651	-1.000000	-1.000000	-1.000000	-1.000000	-1.000000	-1.000000	-1.000000	14.206897	0.000000	-1.000000	-1.000000	356140.000000	1772914648.899690
3737.385000	90962.685000	-10769.805000	-25372.395000	0.000000	0.000000	0.000000	0.000000	-4.494675	-4.309458	-6.894995	-6.890742	-0.000000	0.000000	-0.000000	-0.000000	-30.199540	5.264700	-1.510740	-0.058166	0.793577	0.631651	-1.000000	-1.000000	-1.000000	-1.000000	-1.000000	-1.000000	-1.000000	14.206897	0.000000	-1.000000	-1.000000	356141.000000	1772914648.909109
3724.245000	90973.305000	-10786.905000	-25388.370000	0.000000	0.000000	0.000000	0.000000	15.881863	22.554579	4.496139	11.006532	-0.000000	0.000000	-0.000000	-0.000000	-30.199540	5.264700	-1.510740	-0.058166	0.793577	0.631651	-1.000000	-1.000000	-1.000000	-1.000000	-1.000000	-1.000000	-1.000000	14.206897	0.000000	-1.000000	-1.000000	356142.000000	1772914648.909112
3722.040000	90961.470000	-10782.405000	-25391.610000	0.000000	0.000000	0.000000	0.000000	24.157059	36.898487	9.824184	19.198932	-0.000000	0.000000	-0.000000	-0.000000	-30.199540	5.264700	-1.510740	-0.058166	0.793577	0.631651	-1.000000	-1.000000	-1.000000	-1.000000	-1.000000	-1.000000	-1.000000	14.206897	0.000000	-1.000000	-1.000000	356143.000000	1772914648.909117
3705.795000	90933.930000	-10786.185000	-25398.945000	0.000000	0.000000	0.000000	0.000000	17.183994	31.276511	7.255701	14.335753	-0.000000	0.000000	-0.000000	-0.000000	-30.199540	5.264700	-1.510740	-0.058166	0.793577	0.631651	-1.000000	-1.000000	-1.000000	-1.000000	-1.000000	-1.000000	-1.000000	14.206897	0.000000	-1.000000	-1.000000	356144.000000	1772914648.909120
3690.720000	90903.015000	-10792.395000	-25410.105000	0.000000	0.000000	0.000000	0.000000	1.426450	9.047302	0.982418	2.168771	-0.000000	0.000000	-0.000000	-0.000000	-30.199540	5.264700	-1.510740	-0.058166	0.793577	0.631651	-1.000000	-1.000000	-1.000000	-1.000000	-1.000000	-1.000000	-1.000000	14.206897	0.000000	-1.000000	-1.000000	356145.000000	1772914648.912236
3678.525000	90889.695000	-10800.720000	-25420.635000	0.000000	0.000000	0.000000	0.000000	-13.591118	-17.718912	-4.445825	-9.223743	-0.000000	0.000000	-0.000000	-0.000000	-30.199540	5.264700	-1.510740	-0.058166	0.793577	0.631651	-1.000000	-1.000000	-1.000000	-1.000000	-1.000000	-1.000000	-1.000000	14.206897	0.000000	-1.000000	-1.000000	356146.000000	1772914648.912239
3679.155000	90898.110000	-10804.455000	-25419.465000	0.000000	0.000000	0.000000	0.000000	-20.552833	-34.630745	-6.801992	-14.426831	-0.000000	0.000000	-0.000000	-0.000000	-30.199540	5.264700	-1.510740	-0.058166	0.793577	0.631651	-1.000000	-1.000000	-1.000000	-1.000000	-1.000000	-1.000000	-1.000000	14.206897	0.000000	-1.000000	-1.000000	356147.000000	1772914648.917527
3719.070000	90928.035000	-10777.590000	-25384.230000	0.000000	0.000000	0.000000	0.000000	-16.207576	-32.573231	-5.259875	-11.281749	-0.000000	0.000000	-0.000000	-0.000000	-30.199540	5.264700	-1.510740	-0.058166	0.793577	0.631651	-1.000000	-1.000000	-1.000000	-1.000000	-1.000000	-1.000000	-1.000000	14.206897	0.000000	-1.000000	-1.000000	356148.000000	1772914648.917530
3758.085000	90960.480000	-10751.535000	-25350.930000	0.000000	0.000000	0.000000	0.000000	-1.582167	-12.632686	0.575034	-0.383943	-0.000000	0.000000	-0.000000	-0.000000	-31.893400	3.311420	-1.327620	-0.060242	0.788633	0.637389	-1.000000	-1.000000	-1.000000	-1.000000	-1.000000	-1.000000	-1.000000	14.206897	0.000000	-1.000000	-1.000000	356149.000000	1772914648.920951
3753.045000	90977.040000	-10760.715000	-25353.540000	0.000000	0.000000	0.000000	0.000000	16.594857	14.317360	8.592053	13.345378	-0.000000	0.000000	-0.000000	-0.000000	-31.893400	3.311420	-1.327620	-0.060242	0.788633	0.637389	-1.000000	-1.000000	-1.000000	-1.000000	-1.000000	-1.000000	-1.000000	14.206897	0.000000	-1.000000	-1.000000	356150.000000	1772914648.920953
3708.630000	90970.740000	-10796.715000	-25383.870000	0.000000	0.000000	0.000000	0.000000	26.348847	33.372286	12.470464	20.586784	-0.000000	0.000000	-0.000000	-0.000000	-31.893400	3.311420	-1.327620	-0.060242	0.788633	0.637389	-1.000000	-1.000000	-1.000000	-1.000000	-1.000000	-1.000000	-1.000000	14.206897	0.000000	-1.000000	-1.000000	356151.000000	1772914648.923597
3672.630000	90947.385000	-10819.845000	-25409.430000	0.000000	0.000000	0.000000	0.000000	18.512208	33.944474	6.603718	14.136220	-0.000000	0.000000	-0.000000	-0.000000	-31.893400	3.311420	-1.327620	-0.060242	0.788633	0.637389	-1.000000	-1.000000	-1.000000	-1.000000	-1.000000	-1.000000	-1.000000	14.206897	0.000000	-1.000000	-1.000000	356152.000000	1772914648.923600
3677.760000	90919.215000	-10806.435000	-25405.155000	0.000000	0.000000	0.000000	0.000000	-3.187646	15.841608	-6.282187	-3.123103	-0.000000	0.000000	-0.000000	-0.000000	-31.893400	3.311420	-1.327620	-0.060242	0.788633	0.637389	-1.000000	-1.000000	-1.000000	-1.000000	-1.000000	-1.000000	-1.000000	14.206897	0.000000	-1.000000	-1.000000	356153.000000	1772914648.927687
3686.895000	90897.615000	-10797.975000	-25419.690000	0.000000	0.000000	0.000000	0.000000	-23.196657	-10.850352	-15.926253	-19.556693	-0.000000	0.000000	-0.000000	-0.000000	-31.893400	3.311420	-1.327620	-0.060242	0.788633	0.637389	-1.000000	-1.000000	-1.000000	-1.000000	-1.000000	-1.000000	-1.000000	14.206897	0.000000	-1.000000	-1.000000	356154.000000	1772914648.927689
3676.860000	90895.005000	-10814.715000	-25439.355000	0.000000	0.000000	0.000000	0.000000	-27.958051	-31.740710	-14.994281	-25.412469	-0.000000	0.000000	-0.000000	-0.000000	-31.893400	3.311420	-1.327620	-0.060242	0.788633	0.637389	-1.000000	-1.000000	-1.000000	-1.000000	-1.000000	-1.000000	-1.000000	14.206897	0.000000	-1.000000	-1.000000	356155.000000	1772914648.931602
3692.385000	90917.145000	-10808.100000	-25415.955000	0.000000	0.000000	0.000000	0.000000	-16.618716	-35.846710	-5.711975	-19.100436	-0.000000	0.000000	-0.000000	-0.000000	-31.893400	3.311420	-1.327620	-0.060242	0.788633	0.637389	-1.000000	-1.000000	-1.000000	-1.000000	-1.000000	-1.000000	-1.000000	14.206897	0.000000	-1.000000	-1.000000	356156.000000	1772914648.931605
3717.405000	90945.900000	-10791.450000	-25389.855000	0.000000	0.000000	0.000000	0.000000	2.400085	-21.024849	5.251851	-3.993341	-0.000000	0.000000	-0.000000	-0.000000	-31.893400	3.311420	-1.327620	-0.060242	0.788633	0.637389	-1.000000	-1.000000	-1.000000	-1.000000	-1.000000	-1.000000	-1.000000	14.206897	0.000000	-1.000000	-1.000000	356157.000000	1772914648.935669
3733.335000	90970.020000	-10781.280000	-25374.240000	0.000000	0.000000	0.000000	0.000000	19.642522	4.922695	13.388267	14.198624	-0.000000	0.000000	-0.000000	-0.000000	-31.893400	3.311420	-1.327620	-0.060242	0.788633	0.637389	-1.000000	-1.000000	-1.000000	-1.000000	-1.000000	-1.000000	-1.000000	14.206897	0.000000	-1.000000	-1.000000	356158.000000	1772914648.935671
3735.405000	90971.685000	-10778.040000	-25371.090000	0.000000	0.000000	0.000000	0.000000	27.999053	28.193830	16.524642	27.422744	-0.000000	0.000000	-0.000000	-0.000000	-32.900560	3.570840	-2.929920	-0.058655	0.776915	0.638426	-1.000000	-1.000000	-1.000000	-1.000000	-1.000000	-1.000000	-1.000000	14.206897	0.000000	-1.000000	-1.000000	356159.000000	1772914648.939522
3721.680000	90950.535000	-10781.190000	-25378.830000	0.000000	0.000000	0.000000	0.000000	23.878787	36.284644	13.589009	28.656734	-0.000000	0.000000	-0.000000	-0.000000	-32.900560	3.570840	-2.929920	-0.058655	0.776915	0.638426	-1.000000	-1.000000	-1.000000	-1.000000	-1.000000	-1.000000	-1.000000	14.206897	0.000000	-1.000000	-1.000000	356160.000000	1772914648.939525
3694.590000	90921.375000	-10797.975000	-25402.905000	0.000000	0.000000	0.000000	0.000000	8.594786	24.819288	5.153498	16.523818	-0.000000	0.000000	-0.000000	-0.000000	-32.900560	3.570840	-2.929920	-0.058655	0.776915	0.638426	-1.000000	-1.000000	-1.000000	-1.000000	-1.000000	-1.000000	-1.000000	14.206897	0.000000	-1.000000	-1.000000	356161.000000	1772914648.943532
3670.830000	90900.270000	-10812.690000	-25422.345000	0.000000	0.000000	0.000000	0.000000	-11.642286	0.230326	-6.139156	-3.692039	-0.000000	0.000000	-0.000000	-0.000000	-32.900560	3.570840	-2.929920	-0.058655	0.776915	0.638426	-1.000000	-1.000000	-1.000000	-1.000000	-1.000000	-1.000000	-1.000000	14.206897	0.000000	-1.000000	-1.000000	356162.000000	1772914648.943535
3679.245000	90895.275000	-10805.355000	-25414.875000	0.000000	0.000000	0.000000	0.000000	-27.493990	-23.762936	-15.667783	-22.234542	-0.000000	0.000000	-0.000000	-0.000000	-32.900560	3.570840	-2.929920	-0.058655	0.776915	0.638426	-1.000000	-1.000000	-1.000000	-1.000000	-1.000000	-1.000000	-1.000000	14.206897	0.000000	-1.000000	-1.000000	356163.000000	1772914648.952353
3708.405000	90908.325000	-10786.995000	-25391.520000	0.000000	0.000000	0.000000	0.000000	-30.093509	-34.133480	-18.107459	-29.182367	-0.000000	0.000000	-0.000000	-0.000000	-32.900560	3.570840	-2.929920	-0.058655	0.776915	0.638426	-1.000000	-1.000000	-1.000000	-1.000000	-1.000000	-1.000000	-1.000000	14.206897	0.000000	-1.000000	-1.000000	356164.000000	1772914648.952356
3724.650000	90932.400000	-10779.570000	-25376.535000	0.000000	0.000000	0.000000	0.000000	-16.822820	-25.822879	-11.247136	-20.593087	-0.000000	0.000000	-0.000000	-0.000000	-32.900560	3.570840	-2.929920	-0.058655	0.776915	0.638426	-1.000000	-1.000000	-1.000000	-1.000000	-1.000000	-1.000000	-1.000000	14.206897	0.000000	-1.000000	-1.000000	356165.000000	1772914648.952361
3739.815000	90945.405000	-10768.185000	-25359.615000	0.000000	0.000000	0.000000	0.000000	5.185455	-4.184992	1.159674	-1.917391	-0.000000	0.000000	-0.000000	-0.000000	-32.900560	3.570840	-2.929920	-0.058655	0.776915	0.638426	-1.000000	-1.000000	-1.000000	-1.000000	-1.000000	-1.000000	-1.000000	14.206897	0.000000	-1.000000	-1.000000	356166.000000	1772914648.952363
3733.110000	90953.910000	-10775.340000	-25366.185000	0.000000	0.000000	0.000000	0.000000	23.232050	18.444511	11.773187	15.618447	-0.000000	0.000000	-0.000000	-0.000000	-32.900560	3.570840	-2.929920	-0.058655	0.776915	0.638426	-1.000000	-1.000000	-1.000000	-1.000000	-1.000000	-1.000000	-1.000000	14.206897	0.000000	-1.000000	-1.000000	356167.000000	1772914648.955670
3718.170000	90943.650000	-10783.530000	-25380.090000	0.000000	0.000000	0.000000	0.000000	27.451349	30.088828	14.686001	22.247763	-0.000000	0.000000	-0.000000	-0.000000	-32.900560	3.570840	-2.929920	-0.058655	0.776915	0.638426	-1.000000	-1.000000	-1.000000	-1.000000	-1.000000	-1.000000	-1.000000	14.206897	0.000000	-1.000000	-1.000000	356168.000000	1772914648.955673
3691.035000	90913.050000	-10798.155000	-25400.070000	0.000000	0.000000	0.000000	0.000000	16.295642	25.312870	8.812962	15.140908	-0.000000	0.000000	-0.000000	-0.000000	-32.763220	3.052000	-2.243220	-0.058288	0.766600	0.641844	-1.000000	-1.000000	-1.000000	-1.000000	-1.000000	-1.000000	-1.000000	14.206897	0.000000	-1.000000	-1.000000	356169.000000	1772914648.961043
3685.455000	90884.520000	-10792.620000	-25399.440000	0.000000	0.000000	0.000000	0.000000	-3.192771	7.087076	-1.624273	-0.236591	-0.000000	0.000000	-0.000000	-0.000000	-32.763220	3.052000	-2.243220	-0.058288	0.766600	0.641844	-1.000000	-1.000000	-1.000000	-1.000000	-1.000000	-1.000000	-1.000000	14.206897	0.000000	-1.000000	-1.000000	356170.000000	1772914648.961046
3686.805000	90870.570000	-10787.670000	-25406.955000	0.000000	0.000000	0.000000	0.000000	-19.542474	-14.796727	-9.754833	-13.957389	-0.000000	0.000000	-0.000000	-0.000000	-32.763220	3.052000	-2.243220	-0.058288	0.766600	0.641844	-1.000000	-1.000000	-1.000000	-1.000000	-1.000000	-1.000000	-1.000000	14.206897	0.000000	-1.000000	-1.000000	356171.000000	1772914648.963606
3679.335000	90881.595000	-10800.315000	-25418.430000	0.000000	0.000000	0.000000	0.000000	-24.049520	-28.281668	-11.152556	-18.774606	-0.000000	0.000000	-0.000000	-0.000000	-32.763220	3.052000	-2.243220	-0.058288	0.766600	0.641844	-1.000000	-1.000000	-1.000000	-1.000000	-1.000000	-1.000000	-1.000000	14.206897	0.000000	-1.000000	-1.000000	356172.000000	1772914648.963609
3698.955000	90908.370000	-10791.450000	-25400.115000	0.000000	0.000000	0.000000	0.000000	-15.838893	-25.512671	-6.727497	-13.813247	-0.000000	0.000000	-0.000000	-0.000000	-32.763220	3.052000	-2.243220	-0.058288	0.766600	0.641844	-1.000000	-1.000000	-1.000000	-1.000000	-1.000000	-1.000000	-1.000000	14.206897	0.000000	-1.000000	-1.000000	356173.000000	1772914648.967676
3724.335000	90936.810000	-10780.740000	-25378.740000	0.000000	0.000000	0.000000	0.000000	-0.088748	-7.615315	0.086455	-2.174377	-0.000000	0.000000	-0.000000	-0.000000	-32.763220	3.052000	-2.243220	-0.058288	0.766600	0.641844	-1.000000	-1.000000	-1.000000	-1.000000	-1.000000	-1.000000	-1.000000	14.206897	0.000000	-1.000000	-1.000000	356174.000000	1772914648.967679
3731.985000	90950.400000	-10772.010000	-25368.480000	0.000000	0.000000	0.000000	0.000000	15.872344	15.513318	6.550798	11.290722	-0.000000	0.000000	-0.000000	-0.000000	-32.763220	3.052000	-2.243220	-0.058288	0.766600	0.641844	-1.000000	-1.000000	-1.000000	-1.000000	-1.000000	-1.000000	-1.000000	14.206897	0.000000	-1.000000	-1.000000	356175.000000	1772914648.971534
3722.580000	90943.110000	-10774.440000	-25375.995000	0.000000	0.000000	0.000000	0.000000	24.432966	30.690875	10.399733	20.205991	-0.000000	0.000000	-0.000000	-0.000000	-32.763220	3.052000	-2.243220	-0.058288	0.766600	0.641844	-1.000000	-1.000000	-1.000000	-1.000000	-1.000000	-1.000000	-1.000000	14.206897	0.000000	-1.000000	-1.000000	356176.000000	1772914648.971537
3706.740000	90917.775000	-10780.155000	-25388.415000	0.000000	0.000000	0.000000	0.000000	20.709576	29.019016	9.689027	19.268568	-0.000000	0.000000	-0.000000	-0.000000	-32.763220	3.052000	-2.243220	-0.058288	0.766600	0.641844	-1.000000	-1.000000	-1.000000	-1.000000	-1.000000	-1.000000	-1.000000	14.206897	0.000000	-1.000000	-1.000000	356177.000000	1772914648.975618
3685.905000	90886.770000	-10794.825000	-25406.820000	0.000000	0.000000	0.000000	0.000000	6.136035	10.960536	4.138648	8.251284	-0.000000	0.000000	-0.000000	-0.000000	-32.763220	3.052000	-2.243220	-0.058288	0.766600	0.641844	-1.000000	-1.000000	-1.000000	-1.000000	-1.000000	-1.000000	-1.000000	14.206897	0.000000	-1.000000	-1.000000	356178.000000	1772914648.975621
3672.180000	90863.460000	-10803.690000	-25418.745000	0.000000	0.000000	0.000000	0.000000	-11.837298	-13.979089	-4.052422	-7.260497	-0.000000	0.000000	-0.000000	-0.000000	-16.343460	6.729660	2.258480	-0.058166	0.757994	0.650572	-1.000000	-1.000000	-1.000000	-1.000000	-1.000000	-1.000000	-1.000000	14.206897	0.000000	-1.000000	-1.000000	356179.000000	1772914648.979600
3678.795000	90864.360000	-10799.865000	-25413.615000	0.000000	0.000000	0.000000	0.000000	-23.829678	-32.440305	-10.772597	-19.008674	-0.000000	0.000000	-0.000000	-0.000000	-16.343460	6.729660	2.258480	-0.058166	0.757994	0.650572	-1.000000	-1.000000	-1.000000	-1.000000	-1.000000	-1.000000	-1.000000	14.206897	0.000000	-1.000000	-1.000000	356180.000000	1772914648.979603
3697.155000	90883.800000	-10790.865000	-25398.315000	0.000000	0.000000	0.000000	0.000000	-23.352501	-34.265915	-11.966580	-20.539102	-0.000000	0.000000	-0.000000	-0.000000	-16.343460	6.729660	2.258480	-0.058166	0.757994	0.650572	-1.000000	-1.000000	-1.000000	-1.000000	-1.000000	-1.000000	-1.000000	14.206897	0.000000	-1.000000	-1.000000	356181.000000	1772914648.983655
3715.605000	90914.265000	-10781.910000	-25383.060000	0.000000	0.000000	0.000000	0.000000	-10.462552	-17.987740	-6.488395	-10.963713	-0.000000	0.000000	-0.000000	-0.000000	-16.343460	6.729660	2.258480	-0.058166	0.757994	0.650572	-1.000000	-1.000000	-1.000000	-1.000000	-1.000000	-1.000000	-1.000000	14.206897	0.000000	-1.000000	-1.000000	356182.000000	1772914648.983659
3731.850000	90937.755000	-10771.470000	-25367.625000	0.000000	0.000000	0.000000	0.000000	7.912824	8.181094	2.735771	4.325945	-0.000000	0.000000	-0.000000	-0.000000	-16.343460	6.729660	2.258480	-0.058166	0.757994	0.650572	-1.000000	-1.000000	-1.000000	-1.000000	-1.000000	-1.000000	-1.000000	14.206897	0.000000	-1.000000	-1.000000	356183.000000	1772914648.987643
3734.280000	90940.545000	-10766.745000	-25363.170000	0.000000	0.000000	0.000000	0.000000	21.969047	30.581882	10.688075	17.008861	-0.000000	0.000000	-0.000000	-0.000000	-16.343460	6.729660	2.258480	-0.058166	0.757994	0.650572	-1.000000	-1.000000	-1.000000	-1.000000	-1.000000	-1.000000	-1.000000	14.206897	0.000000	-1.000000	-1.000000	356184.000000	1772914648.987646
3718.305000	90920.520000	-10770.795000	-25373.475000	0.000000	0.000000	0.000000	0.000000	24.378429	37.269041	13.241411	20.488830	-0.000000	0.000000	-0.000000	-0.000000	-16.343460	6.729660	2.258480	-0.058166	0.757994	0.650572	-1.000000	-1.000000	-1.000000	-1.000000	-1.000000	-1.000000	-1.000000	14.206897	0.000000	-1.000000	-1.000000	356185.000000	1772914648.991660
3693.825000	90889.200000	-10782.180000	-25392.015000	0.000000	0.000000	0.000000	0.000000	13.753955	24.437513	9.020275	12.955052	-0.000000	0.000000	-0.000000	-0.000000	-16.343460	6.729660	2.258480	-0.058166	0.757994	0.650572	-1.000000	-1.000000	-1.000000	-1.000000	-1.000000	-1.000000	-1.000000	14.206897	0.000000	-1.000000	-1.000000	356186.000000	1772914648.991663
3679.335000	90860.625000	-10791.765000	-25407.090000	0.000000	0.000000	0.000000	0.000000	-4.535929	-1.328307	-0.037999	-1.788182	-0.000000	0.000000	-0.000000	-0.000000	-16.343460	6.729660	2.258480	-0.058166	0.757994	0.650572	-1.000000	-1.000000	-1.000000	-1.000000	-1.000000	-1.000000	-1.000000	14.206897	0.000000	-1.000000	-1.000000	356187.000000	1772914648.995598
3680.685000	90850.185000	-10794.420000	-25408.935000	0.000000	0.000000	0.000000	0.000000	-20.639300	-26.483979	-9.396303	-15.970748	-0.000000	0.000000	-0.000000	-0.000000	-16.343460	6.729660	2.258480	-0.058166	0.757994	0.650572	-1.000000	-1.000000	-1.000000	-1.000000	-1.000000	-1.000000	-1.000000	14.206897	0.000000	-1.000000	-1.000000	356188.000000	1772914648.995602
3689.910000	90861.345000	-10792.800000	-25400.070000	0.000000	0.000000	0.000000	0.000000	-25.622296	-37.772709	-14.159350	-21.852596	-0.000000	0.000000	-0.000000	-0.000000	-5.295220	4.303320	-1.220800	-0.064148	0.753233	0.661925	-1.000000	-1.000000	-1.000000	-1.000000	-1.000000	-1.000000	-1.000000	14.206897	0.000000	-1.000000	-1.000000	356189.000000	1772914648.999625
3713.760000	90891.630000	-10777.500000	-25378.020000	0.000000	0.000000	0.000000	0.000000	-16.823585	-29.208053	-11.747076	-16.055877	-0.000000	0.000000	-0.000000	-0.000000	-5.295220	4.303320	-1.220800	-0.064148	0.753233	0.661925	-1.000000	-1.000000	-1.000000	-1.000000	-1.000000	-1.000000	-1.000000	14.206897	0.000000	-1.000000	-1.000000	356190.000000	1772914648.999628
3725.235000	90923.445000	-10773.180000	-25368.120000	0.000000	0.000000	0.000000	0.000000	0.791963	-5.113548	-3.334423	-1.622371	-0.000000	0.000000	-0.000000	-0.000000	-5.295220	4.303320	-1.220800	-0.064148	0.753233	0.661925	-1.000000	-1.000000	-1.000000	-1.000000	-1.000000	-1.000000	-1.000000	14.206897	0.000000	-1.000000	-1.000000	356191.000000	1772914649.003631
3709.980000	90932.850000	-10790.820000	-25384.770000	0.000000	0.000000	0.000000	0.000000	17.217987	21.951712	6.138166	13.060795	-0.000000	0.000000	-0.000000	-0.000000	-5.295220	4.303320	-1.220800	-0.064148	0.753233	0.661925	-1.000000	-1.000000	-1.000000	-1.000000	-1.000000	-1.000000	-1.000000	14.206897	0.000000	-1.000000	-1.000000	356192.000000	1772914649.003634
3723.210000	90920.430000	-10772.505000	-25373.160000	0.000000	0.000000	0.000000	0.000000	23.355494	37.440309	11.076040	19.422971	-0.000000	0.000000	-0.000000	-0.000000	-5.295220	4.303320	-1.220800	-0.064148	0.753233	0.661925	-1.000000	-1.000000	-1.000000	-1.000000	-1.000000	-1.000000	-1.000000	14.206897	0.000000	-1.000000	-1.000000	356193.000000	1772914649.007667
3725.280000	90894.600000	-10760.220000	-25364.340000	0.000000	0.000000	0.000000	0.000000	17.583964	32.842854	10.338707	15.499497	-0.000000	0.000000	-0.000000	-0.000000	-5.295220	4.303320	-1.220800	-0.064148	0.753233	0.661925	-1.000000	-1.000000	-1.000000	-1.000000	-1.000000	-1.000000	-1.000000	14.206897	0.000000	-1.000000	-1.000000	356194.000000	1772914649.007670
3688.650000	90863.280000	-10788.705000	-25398.000000	0.000000	0.000000	0.000000	0.000000	4.822455	10.738471	6.312320	5.527062	-0.000000	0.000000	-0.000000	-0.000000	-5.295220	4.303320	-1.220800	-0.064148	0.753233	0.661925	-1.000000	-1.000000	-1.000000	-1.000000	-1.000000	-1.000000	-1.000000	14.206897	0.000000	-1.000000	-1.000000	356195.000000	1772914649.013832
3649.680000	90845.505000	-10824.390000	-25434.090000	0.000000	0.000000	0.000000	0.000000	-9.865760	-16.859275	-0.298692	-6.441404	-0.000000	0.000000	-0.000000	-0.000000	-5.295220	4.303320	-1.220800	-0.064148	0.753233	0.661925	-1.000000	-1.000000	-1.000000	-1.000000	-1.000000	-1.000000	-1.000000	14.206897	0.000000	-1.000000	-1.000000	356196.000000	1772914649.013835
3665.520000	90854.685000	-10813.095000	-25417.440000	0.000000	0.000000	0.000000	0.000000	-21.695988	-35.207197	-8.799951	-16.875978	-0.000000	0.000000	-0.000000	-0.000000	-5.295220	4.303320	-1.220800	-0.064148	0.753233	0.661925	-1.000000	-1.000000	-1.000000	-1.000000	-1.000000	-1.000000	-1.000000	14.206897	0.000000	-1.000000	-1.000000	356197.000000	1772914649.015594
3704.535000	90885.060000	-10783.755000	-25382.430000	0.000000	0.000000	0.000000	0.000000	-23.505862	-34.430544	-13.757372	-19.431371	0.000000	0.000000	-0.000000	-0.000000	-5.295220	4.303320	-1.220800	-0.064148	0.753233	0.661925	-1.000000	-1.000000	-1.000000	-1.000000	-1.000000	-1.000000	-1.000000	14.206897	0.000000	-1.000000	-1.000000	356198.000000	1772914649.015597
3731.805000	90913.500000	-10766.655000	-25358.760000	0.000000	0.000000	0.000000	0.000000	-10.830182	-14.889808	-9.149009	-9.499311	0.000000	0.000000	-0.000000	-0.000000	-6.119260	0.701960	-0.961380	-0.066223	0.758970	0.669066	-1.000000	-1.000000	-1.000000	-1.000000	-1.000000	-1.000000	-1.000000	14.206897	0.000000	-1.000000	-1.000000	356199.000000	1772914649.020050
3735.495000	90928.035000	-10767.555000	-25357.590000	0.000000	0.000000	0.000000	0.000000	10.444051	12.515849	3.245588	8.217804	0.000000	0.000000	-0.000000	-0.000000	-6.119260	0.701960	-0.961380	-0.066223	0.758970	0.669066	-1.000000	-1.000000	-1.000000	-1.000000	-1.000000	-1.000000	-1.000000	14.206897	0.000000	-1.000000	-1.000000	356200.000000	1772914649.020052
3734.865000	90922.680000	-10762.740000	-25356.420000	0.000000	0.000000	0.000000	0.000000	26.686454	32.422793	14.435667	21.889442	0.000000	0.000000	-0.000000	-0.000000	-6.119260	0.701960	-0.961380	-0.066223	0.758970	0.669066	-1.000000	-1.000000	-1.000000	-1.000000	-1.000000	-1.000000	-1.000000	14.206897	0.000000	-1.000000	-1.000000	356201.000000	1772914649.025715
3713.805000	90900.180000	-10773.225000	-25373.160000	0.000000	0.000000	0.000000	0.000000	27.405525	34.031010	16.702644	22.475399	0.000000	0.000000	-0.000000	-0.000000	-6.119260	0.701960	-0.961380	-0.066223	0.758970	0.669066	-1.000000	-1.000000	-1.000000	-1.000000	-1.000000	-1.000000	-1.000000	14.206897	0.000000	-1.000000	-1.000000	356202.000000	1772914649.025718
3676.320000	90869.760000	-10801.800000	-25407.495000	0.000000	0.000000	0.000000	0.000000	12.030061	16.992843	8.694566	9.550434	0.000000	0.000000	-0.000000	-0.000000	-6.119260	0.701960	-0.961380	-0.066223	0.758970	0.669066	-1.000000	-1.000000	-1.000000	-1.000000	-1.000000	-1.000000	-1.000000	14.206897	0.000000	-1.000000	-1.000000	356203.000000	1772914649.027671
3662.595000	90850.725000	-10808.550000	-25417.305000	0.000000	0.000000	0.000000	0.000000	-11.002493	-8.979784	-5.217766	-9.799756	0.000000	0.000000	-0.000000	-0.000000	-6.119260	0.701960	-0.961380	-0.066223	0.758970	0.669066	-1.000000	-1.000000	-1.000000	-1.000000	-1.000000	-1.000000	-1.000000	14.206897	0.000000	-1.000000	-1.000000	356204.000000	1772914649.027674
3660.750000	90851.670000	-10811.880000	-25416.810000	0.000000	0.000000	0.000000	0.000000	-28.882408	-29.669326	-17.192334	-24.727052	0.000000	0.000000	-0.000000	-0.000000	-6.119260	0.701960	-0.961380	-0.066223	0.758970	0.669066	-1.000000	-1.000000	-1.000000	-1.000000	-1.000000	-1.000000	-1.000000	14.206897	0.000000	-1.000000	-1.000000	356205.000000	1772914649.031663
3679.740000	90873.360000	-10804.005000	-25401.105000	0.000000	0.000000	0.000000	0.000000	-31.330525	-33.950143	-20.117146	-26.410157	0.000000	0.000000	-0.000000	-0.000000	-6.119260	0.701960	-0.961380	-0.066223	0.758970	0.669066	-1.000000	-1.000000	-1.000000	-1.000000	-1.000000	-1.000000	-1.000000	14.206897	0.000000	-1.000000	-1.000000	356206.000000	1772914649.031666
3709.890000	90899.370000	-10786.410000	-25375.365000	0.000000	0.000000	0.000000	0.000000	-16.629060	-19.737299	-12.150722	-13.536234	0.000000	0.000000	-0.000000	-0.000000	-6.119260	0.701960	-0.961380	-0.066223	0.758970	0.669066	-1.000000	-1.000000	-1.000000	-1.000000	-1.000000	-1.000000	-1.000000	14.206897	0.000000	-1.000000	-1.000000	356207.000000	1772914649.035614
3733.920000	90921.870000	-10766.745000	-25348.185000	0.000000	0.000000	0.000000	0.000000	7.622283	4.968601	2.632346	7.266230	0.000000	0.000000	-0.000000	-0.000000	-6.119260	0.701960	-0.961380	-0.066223	0.758970	0.669066	-1.000000	-1.000000	-1.000000	-1.000000	-1.000000	-1.000000	-1.000000	14.206897	0.000000	-1.000000	-1.000000	356208.000000	1772914649.035616
3731.490000	90924.705000	-10765.530000	-25348.590000	0.000000	0.000000	0.000000	0.000000	28.541633	26.692330	16.687393	25.213452	0.000000	0.000000	-0.000000	-0.000000	-3.525060	0.061040	-2.350040	-0.061767	0.756651	0.665648	-1.000000	-1.000000	-1.000000	-1.000000	-1.000000	-1.000000	-1.000000	14.206897	0.000000	-1.000000	-1.000000	356209.000000	1772914649.039581
3720.780000	90905.805000	-10772.145000	-25368.615000	0.000000	0.000000	0.000000	0.000000	34.699632	33.827491	22.530497	30.403797	0.000000	0.000000	-0.000000	-0.000000	-3.525060	0.061040	-2.350040	-0.061767	0.756651	0.665648	-1.000000	-1.000000	-1.000000	-1.000000	-1.000000	-1.000000	-1.000000	14.206897	0.000000	-1.000000	-1.000000	356210.000000	1772914649.039584
3708.720000	90878.040000	-10775.835000	-25378.740000	0.000000	0.000000	0.000000	0.000000	22.980903	22.662396	17.011271	19.458057	0.000000	0.000000	-0.000000	-0.000000	-3.525060	0.061040	-2.350040	-0.061767	0.756651	0.665648	-1.000000	-1.000000	-1.000000	-1.000000	-1.000000	-1.000000	-1.000000	14.206897	0.000000	-1.000000	-1.000000	356211.000000	1772914649.043585
3673.530000	90851.850000	-10803.330000	-25407.990000	0.000000	0.000000	0.000000	0.000000	0.064166	-0.702187	3.179292	-1.741761	0.000000	0.000000	-0.000000	-0.000000	-3.525060	0.061040	-2.350040	-0.061767	0.756651	0.665648	-1.000000	-1.000000	-1.000000	-1.000000	-1.000000	-1.000000	-1.000000	14.206897	0.000000	-1.000000	-1.000000	356212.000000	1772914649.043587
3649.680000	90843.750000	-10825.425000	-25428.240000	0.000000	0.000000	0.000000	0.000000	-22.832010	-23.666369	-12.468635	-22.229854	0.000000	0.000000	-0.000000	-0.000000	-3.525060	0.061040	-2.350040	-0.061767	0.756651	0.665648	-1.000000	-1.000000	-1.000000	-1.000000	-1.000000	-1.000000	-1.000000	14.206897	0.000000	-1.000000	-1.000000	356213.000000	1772914649.047661
3670.245000	90859.995000	-10813.095000	-25405.965000	0.000000	0.000000	0.000000	0.000000	-35.146718	-33.852386	-22.903463	-32.009883	0.000000	0.000000	-0.000000	-0.000000	-3.525060	0.061040	-2.350040	-0.061767	0.756651	0.665648	-1.000000	-1.000000	-1.000000	-1.000000	-1.000000	-1.000000	-1.000000	14.206897	0.000000	-1.000000	-1.000000	356214.000000	1772914649.047663
3706.695000	90889.560000	-10787.265000	-25371.675000	0.000000	0.000000	0.000000	0.000000	-29.935633	-25.600989	-22.109855	-25.407586	0.000000	0.000000	-0.000000	-0.000000	-3.525060	0.061040	-2.350040	-0.061767	0.756651	0.665648	-1.000000	-1.000000	-1.000000	-1.000000	-1.000000	-1.000000	-1.000000	14.206897	0.000000	-1.000000	-1.000000	356215.000000	1772914649.051623
3743.235000	90917.910000	-10757.655000	-25345.305000	0.000000	0.000000	0.000000	0.000000	-8.154319	-3.154793	-8.769616	-4.511395	0.000000	0.000000	-0.000000	-0.000000	-3.525060	0.061040	-2.350040	-0.061767	0.756651	0.665648	-1.000000	-1.000000	-1.000000	-1.000000	-1.000000	-1.000000	-1.000000	14.206897	0.000000	-1.000000	-1.000000	356216.000000	1772914649.051626
3747.825000	90928.035000	-10755.225000	-25341.120000	0.000000	0.000000	0.000000	0.000000	19.100454	21.362575	10.555528	19.633389	0.000000	0.000000	-0.000000	-0.000000	-3.525060	0.061040	-2.350040	-0.061767	0.756651	0.665648	-1.000000	-1.000000	-1.000000	-1.000000	-1.000000	-1.000000	-1.000000	14.206897	0.000000	-1.000000	-1.000000	356217.000000	1772914649.055656
3708.630000	90916.920000	-10786.905000	-25376.130000	0.000000	0.000000	0.000000	0.000000	35.522268	34.486963	23.867933	32.563876	0.000000	0.000000	-0.000000	-0.000000	-3.525060	0.061040	-2.350040	-0.061767	0.756651	0.665648	-1.000000	-1.000000	-1.000000	-1.000000	-1.000000	-1.000000	-1.000000	14.206897	0.000000	-1.000000	-1.000000	356218.000000	1772914649.055659
3679.560000	90889.290000	-10804.545000	-25409.250000	0.000000	0.000000	0.000000	0.000000	30.158164	28.889620	21.904778	25.701165	0.000000	0.000000	-0.000000	-0.000000	-1.113980	1.388660	-3.021480	-0.059570	0.746580	0.663634	-1.000000	-1.000000	-1.000000	-1.000000	-1.000000	-1.000000	-1.000000	14.206897	0.000000	-1.000000	-1.000000	356219.000000	1772914649.059626
3684.195000	90861.120000	-10791.495000	-25401.915000	0.000000	0.000000	0.000000	0.000000	6.764643	7.479829	6.548550	3.470605	0.000000	0.000000	-0.000000	-0.000000	-1.113980	1.388660	-3.021480	-0.059570	0.746580	0.663634	-1.000000	-1.000000	-1.000000	-1.000000	-1.000000	-1.000000	-1.000000	14.206897	0.000000	-1.000000	-1.000000	356220.000000	1772914649.059628
3679.380000	90844.785000	-10793.790000	-25397.640000	0.000000	0.000000	0.000000	0.000000	-18.305474	-18.227543	-10.362777	-18.767987	0.000000	0.000000	-0.000000	-0.000000	-1.113980	1.388660	-3.021480	-0.059570	0.746580	0.663634	-1.000000	-1.000000	-1.000000	-1.000000	-1.000000	-1.000000	-1.000000	14.206897	0.000000	-1.000000	-1.000000	356221.000000	1772914649.063607
3676.725000	90854.145000	-10800.405000	-25393.905000	0.000000	0.000000	0.000000	0.000000	-29.922735	-34.382444	-18.294445	-27.116286	0.000000	0.000000	-0.000000	-0.000000	-1.113980	1.388660	-3.021480	-0.059570	0.746580	0.663634	-1.000000	-1.000000	-1.000000	-1.000000	-1.000000	-1.000000	-1.000000	14.206897	0.000000	-1.000000	-1.000000	356222.000000	1772914649.063609
3698.280000	90880.425000	-10789.245000	-25374.105000	0.000000	0.000000	0.000000	0.000000	-24.162996	-32.168958	-15.358270	-19.003737	0.000000	0.000000	-0.000000	-0.000000	-1.113980	1.388660	-3.021480	-0.059570	0.746580	0.663634	-1.000000	-1.000000	-1.000000	-1.000000	-1.000000	-1.000000	-1.000000	14.206897	0.000000	-1.000000	-1.000000	356223.000000	1772914649.068250
3723.705000	90909.360000	-10773.630000	-25352.685000	0.000000	0.000000	0.000000	0.000000	-6.509312	-12.626990	-5.506376	-1.432588	0.000000	0.000000	-0.000000	-0.000000	-1.113980	1.388660	-3.021480	-0.059570	0.746580	0.663634	-1.000000	-1.000000	-1.000000	-1.000000	-1.000000	-1.000000	-1.000000	14.206897	0.000000	-1.000000	-1.000000	356224.000000	1772914649.068253
3731.670000	90923.535000	-10769.760000	-25357.995000	0.000000	0.000000	0.000000	0.000000	13.401115	13.655709	5.823167	15.303955	0.000000	0.000000	-0.000000	-0.000000	-1.113980	1.388660	-3.021480	-0.059570	0.746580	0.663634	-1.000000	-1.000000	-1.000000	-1.000000	-1.000000	-1.000000	-1.000000	14.206897	0.000000	-1.000000	-1.000000	356225.000000	1772914649.072280
3719.070000	90916.695000	-10776.555000	-25376.490000	0.000000	0.000000	0.000000	0.000000	25.387640	32.284740	13.154970	22.121172	0.000000	0.000000	-0.000000	-0.000000	-1.113980	1.388660	-3.021480	-0.059570	0.746580	0.663634	-1.000000	-1.000000	-1.000000	-1.000000	-1.000000	-1.000000	-1.000000	14.206897	0.000000	-1.000000	-1.000000	356226.000000	1772914649.072283
3711.555000	90891.045000	-10772.505000	-25374.465000	0.000000	0.000000	0.000000	0.000000	23.305046	33.122632	13.064683	15.785552	0.000000	0.000000	-0.000000	-0.000000	-1.113980	1.388660	-3.021480	-0.059570	0.746580	0.663634	-1.000000	-1.000000	-1.000000	-1.000000	-1.000000	-1.000000	-1.000000	14.206897	0.000000	-1.000000	-1.000000	356227.000000	1772914649.075697
3705.120000	90861.210000	-10770.120000	-25376.670000	0.000000	0.000000	0.000000	0.000000	9.203744	15.912147	6.672899	1.553443	0.000000	0.000000	-0.000000	-0.000000	-1.113980	1.388660	-3.021480	-0.059570	0.746580	0.663634	-1.000000	-1.000000	-1.000000	-1.000000	-1.000000	-1.000000	-1.000000	14.206897	0.000000	-1.000000	-1.000000	356228.000000	1772914649.075700
3668.445000	90838.530000	-10803.105000	-25414.965000	0.000000	0.000000	0.000000	0.000000	-8.704851	-9.764896	-2.094503	-11.903067	0.000000	0.000000	-0.000000	-0.000000	-0.900340	2.517900	-4.669560	-0.060058	0.745298	0.662779	-1.000000	-1.000000	-1.000000	-1.000000	-1.000000	-1.000000	-1.000000	14.206897	0.000000	-1.000000	-1.000000	356229.000000	1772914649.079695
3673.575000	90840.060000	-10801.800000	-25410.915000	0.000000	0.000000	0.000000	0.000000	-22.032859	-29.900005	-10.010887	-19.299547	0.000000	0.000000	-0.000000	-0.000000	-0.900340	2.517900	-4.669560	-0.060058	0.745298	0.662779	-1.000000	-1.000000	-1.000000	-1.000000	-1.000000	-1.000000	-1.000000	14.206897	0.000000	-1.000000	-1.000000	356230.000000	1772914649.079698
3707.640000	90865.530000	-10775.475000	-25380.495000	0.000000	0.000000	0.000000	0.000000	-24.464836	-33.487625	-13.696916	-18.093168	0.000000	0.000000	-0.000000	-0.000000	-0.900340	2.517900	-4.669560	-0.060058	0.745298	0.662779	-1.000000	-1.000000	-1.000000	-1.000000	-1.000000	-1.000000	-1.000000	14.206897	0.000000	-1.000000	-1.000000	356231.000000	1772914649.083752
3715.650000	90898.695000	-10775.745000	-25374.240000	0.000000	0.000000	0.000000	0.000000	-13.648607	-18.311775	-9.899668	-7.501638	0.000000	0.000000	-0.000000	-0.000000	-0.900340	2.517900	-4.669560	-0.060058	0.745298	0.662779	-1.000000	-1.000000	-1.000000	-1.000000	-1.000000	-1.000000	-1.000000	14.206897	0.000000	-1.000000	-1.000000	356232.000000	1772914649.083755
3724.335000	90920.160000	-10773.900000	-25360.290000	0.000000	0.000000	0.000000	0.000000	4.767636	7.506642	-0.300876	7.974597	0.000000	0.000000	-0.000000	-0.000000	-0.900340	2.517900	-4.669560	-0.060058	0.745298	0.662779	-1.000000	-1.000000	-1.000000	-1.000000	-1.000000	-1.000000	-1.000000	14.206897	0.000000	-1.000000	-1.000000	356233.000000	1772914649.087609
3731.130000	90922.185000	-10768.095000	-25353.090000	0.000000	0.000000	0.000000	0.000000	19.849588	29.645259	8.782785	19.895138	0.000000	0.000000	-0.000000	-0.000000	-0.900340	2.517900	-4.669560	-0.060058	0.745298	0.662779	-1.000000	-1.000000	-1.000000	-1.000000	-1.000000	-1.000000	-1.000000	14.206897	0.000000	-1.000000	-1.000000	356234.000000	1772914649.087612
3728.970000	90904.095000	-10758.285000	-25350.120000	0.000000	0.000000	0.000000	0.000000	23.789168	35.714164	12.560671	22.232648	0.000000	0.000000	-0.000000	-0.000000	-0.900340	2.517900	-4.669560	-0.060058	0.745298	0.662779	-1.000000	-1.000000	-1.000000	-1.000000	-1.000000	-1.000000	-1.000000	14.206897	0.000000	-1.000000	-1.000000	356235.000000	1772914649.091640
3708.270000	90874.530000	-10767.240000	-25366.995000	0.000000	0.000000	0.000000	0.000000	15.726062	22.321046	10.400252	14.329527	0.000000	0.000000	-0.000000	-0.000000	-0.900340	2.517900	-4.669560	-0.060058	0.745298	0.662779	-1.000000	-1.000000	-1.000000	-1.000000	-1.000000	-1.000000	-1.000000	14.206897	0.000000	-1.000000	-1.000000	356236.000000	1772914649.091642
3679.605000	90846.720000	-10789.605000	-25398.405000	0.000000	0.000000	0.000000	0.000000	-0.018410	-3.325950	3.684057	-0.432390	0.000000	0.000000	-0.000000	-0.000000	-0.900340	2.517900	-4.669560	-0.060058	0.745298	0.662779	-1.000000	-1.000000	-1.000000	-1.000000	-1.000000	-1.000000	-1.000000	14.206897	0.000000	-1.000000	-1.000000	356237.000000	1772914649.095639
3671.505000	90841.140000	-10802.880000	-25410.150000	0.000000	0.000000	0.000000	0.000000	-16.273016	-27.563727	-5.464279	-16.259866	0.000000	0.000000	-0.000000	-0.000000	-0.900340	2.517900	-4.669560	-0.060058	0.745298	0.662779	-1.000000	-1.000000	-1.000000	-1.000000	-1.000000	-1.000000	-1.000000	14.206897	0.000000	-1.000000	-1.000000	356238.000000	1772914649.095642
3688.695000	90859.410000	-10795.995000	-25394.895000	0.000000	0.000000	0.000000	0.000000	-24.788303	-37.387788	-13.087343	-25.638189	0.000000	0.000000	-0.000000	-0.000000	-1.190280	2.639980	-4.852680	-0.062988	0.749388	0.661558	-1.000000	-1.000000	-1.000000	-1.000000	-1.000000	-1.000000	-1.000000	14.206897	0.000000	-1.000000	-1.000000	356239.000000	1772914649.099756
3714.885000	90889.965000	-10778.670000	-25371.225000	0.000000	0.000000	0.000000	0.000000	-19.921198	-27.301014	-14.155588	-22.323503	0.000000	0.000000	-0.000000	-0.000000	-1.190280	2.639980	-4.852680	-0.062988	0.749388	0.661558	-1.000000	-1.000000	-1.000000	-1.000000	-1.000000	-1.000000	-1.000000	14.206897	0.000000	-1.000000	-1.000000	356240.000000	1772914649.099759
3730.275000	90918.225000	-10767.105000	-25355.430000	0.000000	0.000000	0.000000	0.000000	-3.360121	-2.561975	-6.716066	-6.707866	0.000000	0.000000	-0.000000	-0.000000	-1.190280	2.639980	-4.852680	-0.062988	0.749388	0.661558	-1.000000	-1.000000	-1.000000	-1.000000	-1.000000	-1.000000	-1.000000	14.206897	0.000000	-1.000000	-1.000000	356241.000000	1772914649.103737
3738.105000	90928.305000	-10755.990000	-25343.865000	0.000000	0.000000	0.000000	0.000000	15.568285	23.506652	5.400205	12.834844	0.000000	0.000000	-0.000000	-0.000000	-1.190280	2.639980	-4.852680	-0.062988	0.749388	0.661558	-1.000000	-1.000000	-1.000000	-1.000000	-1.000000	-1.000000	-1.000000	14.206897	0.000000	-1.000000	-1.000000	356242.000000	1772914649.103740
3736.710000	90915.120000	-10748.880000	-25341.300000	0.000000	0.000000	0.000000	0.000000	25.982808	36.825321	15.167541	25.482604	0.000000	0.000000	-0.000000	-0.000000	-1.190280	2.639980	-4.852680	-0.062988	0.749388	0.661558	-1.000000	-1.000000	-1.000000	-1.000000	-1.000000	-1.000000	-1.000000	14.206897	0.000000	-1.000000	-1.000000	356243.000000	1772914649.110015
3718.800000	90885.780000	-10755.225000	-25355.610000	0.000000	0.000000	0.000000	0.000000	22.409797	30.224455	17.225138	24.834639	0.000000	0.000000	-0.000000	-0.000000	-1.190280	2.639980	-4.852680	-0.062988	0.749388	0.661558	-1.000000	-1.000000	-1.000000	-1.000000	-1.000000	-1.000000	-1.000000	14.206897	0.000000	-1.000000	-1.000000	356244.000000	1772914649.110018
3682.980000	90855.810000	-10783.620000	-25387.155000	0.000000	0.000000	0.000000	0.000000	6.833335	7.304414	10.194481	11.456877	0.000000	0.000000	-0.000000	-0.000000	-1.190280	2.639980	-4.852680	-0.062988	0.749388	0.661558	-1.000000	-1.000000	-1.000000	-1.000000	-1.000000	-1.000000	-1.000000	14.206897	0.000000	-1.000000	-1.000000	356245.000000	1772914649.112944
3663.540000	90842.445000	-10806.840000	-25408.215000	0.000000	0.000000	0.000000	0.000000	-13.250515	-19.521129	-3.322267	-8.265157	0.000000	0.000000	-0.000000	-0.000000	-1.190280	2.639980	-4.852680	-0.062988	0.749388	0.661558	-1.000000	-1.000000	-1.000000	-1.000000	-1.000000	-1.000000	-1.000000	14.206897	0.000000	-1.000000	-1.000000	356246.000000	1772914649.112946
3681.180000	90852.705000	-10794.645000	-25399.215000	0.000000	0.000000	0.000000	0.000000	-27.435611	-35.709632	-16.704900	-24.381169	0.000000	0.000000	-0.000000	-0.000000	-1.190280	2.639980	-4.852680	-0.062988	0.749388	0.661558	-1.000000	-1.000000	-1.000000	-1.000000	-1.000000	-1.000000	-1.000000	14.206897	0.000000	-1.000000	-1.000000	356247.000000	1772914649.116408
3686.580000	90880.875000	-10801.845000	-25396.245000	0.000000	0.000000	0.000000	0.000000	-27.162114	-32.458201	-21.872664	-27.873541	0.000000	0.000000	-0.000000	-0.000000	-1.190280	2.639980	-4.852680	-0.062988	0.749388	0.661558	-1.000000	-1.000000	-1.000000	-1.000000	-1.000000	-1.000000	-1.000000	14.206897	0.000000	-1.000000	-1.000000	356248.000000	1772914649.116410
3708.900000	90909.180000	-10791.990000	-25380.630000	0.000000	0.000000	0.000000	0.000000	-12.091391	-11.575902	-15.545526	-16.765765	0.000000	0.000000	-0.000000	-0.000000	-1.449700	3.296160	-3.296160	-0.064697	0.754942	0.661436	-1.000000	-1.000000	-1.000000	-1.000000	-1.000000	-1.000000	-1.000000	14.206897	0.000000	-1.000000	-1.000000	356249.000000	1772914649.121550
3725.280000	90925.470000	-10777.500000	-25363.665000	0.000000	0.000000	0.000000	0.000000	9.366989	15.458805	-1.535416	2.586177	0.000000	0.000000	-0.000000	-0.000000	-1.449700	3.296160	-3.296160	-0.064697	0.754942	0.661436	-1.000000	-1.000000	-1.000000	-1.000000	-1.000000	-1.000000	-1.000000	14.206897	0.000000	-1.000000	-1.000000	356250.000000	1772914649.121552
3730.275000	90921.510000	-10765.890000	-25352.415000	0.000000	0.000000	0.000000	0.000000	26.022823	33.952801	13.086993	20.281720	0.000000	0.000000	-0.000000	-0.000000	-1.449700	3.296160	-3.296160	-0.064697	0.754942	0.661436	-1.000000	-1.000000	-1.000000	-1.000000	-1.000000	-1.000000	-1.000000	14.206897	0.000000	-1.000000	-1.000000	356251.000000	1772914649.124584
3716.280000	90900.855000	-10770.120000	-25362.090000	0.000000	0.000000	0.000000	0.000000	29.749027	34.168062	21.703597	28.049787	0.000000	0.000000	-0.000000	-0.000000	-1.449700	3.296160	-3.296160	-0.064697	0.754942	0.661436	-1.000000	-1.000000	-1.000000	-1.000000	-1.000000	-1.000000	-1.000000	14.206897	0.000000	-1.000000	-1.000000	356252.000000	1772914649.124587
3690.585000	90872.145000	-10786.995000	-25385.580000	0.000000	0.000000	0.000000	0.000000	18.774070	16.366029	20.241722	22.267328	0.000000	0.000000	-0.000000	-0.000000	-1.449700	3.296160	-3.296160	-0.064697	0.754942	0.661436	-1.000000	-1.000000	-1.000000	-1.000000	-1.000000	-1.000000	-1.000000	14.206897	0.000000	-1.000000	-1.000000	356253.000000	1772914649.127845
3689.280000	90854.910000	-10783.575000	-25384.770000	0.000000	0.000000	0.000000	0.000000	-1.209235	-9.724810	9.440141	5.931946	0.000000	0.000000	-0.000000	-0.000000	-1.449700	3.296160	-3.296160	-0.064697	0.754942	0.661436	-1.000000	-1.000000	-1.000000	-1.000000	-1.000000	-1.000000	-1.000000	14.206897	0.000000	-1.000000	-1.000000	356254.000000	1772914649.127848
3703.680000	90856.845000	-10773.495000	-25371.855000	0.000000	0.000000	0.000000	0.000000	-19.076921	-30.206537	-4.358905	-11.624455	0.000000	0.000000	-0.000000	-0.000000	-1.449700	3.296160	-3.296160	-0.064697	0.754942	0.661436	-1.000000	-1.000000	-1.000000	-1.000000	-1.000000	-1.000000	-1.000000	14.206897	0.000000	-1.000000	-1.000000	356255.000000	1772914649.131599
3704.400000	90877.635000	-10780.920000	-25374.915000	0.000000	0.000000	0.000000	0.000000	-25.056046	-34.341657	-13.473796	-20.614703	0.000000	0.000000	-0.000000	-0.000000	-1.449700	3.296160	-3.296160	-0.064697	0.754942	0.661436	-1.000000	-1.000000	-1.000000	-1.000000	-1.000000	-1.000000	-1.000000	14.206897	0.000000	-1.000000	-1.000000	356256.000000	1772914649.131602
3705.705000	90904.320000	-10785.195000	-25372.125000	0.000000	0.000000	0.000000	0.000000	-17.874817	-20.274512	-14.951953	-18.163790	0.000000	0.000000	-0.000000	-0.000000	-1.449700	3.296160	-3.296160	-0.064697	0.754942	0.661436	-1.000000	-1.000000	-1.000000	-1.000000	-1.000000	-1.000000	-1.000000	14.206897	0.000000	-1.000000	-1.000000	356257.000000	1772914649.135622
3754.170000	90928.485000	-10742.805000	-25320.780000	0.000000	0.000000	0.000000	0.000000	-3.446438	4.132337	-10.185180	-7.750215	0.000000	0.000000	-0.000000	-0.000000	-1.449700	3.296160	-3.296160	-0.064697	0.754942	0.661436	-1.000000	-1.000000	-1.000000	-1.000000	-1.000000	-1.000000	-1.000000	14.206897	0.000000	-1.000000	-1.000000	356258.000000	1772914649.135625
3770.820000	90930.015000	-10724.265000	-25299.495000	0.000000	0.000000	0.000000	0.000000	11.624517	25.746449	-1.031238	5.971093	0.000000	0.000000	-0.000000	-0.000000	-4.501700	2.990960	-2.411080	-0.064331	0.764036	0.659422	-1.000000	-1.000000	-1.000000	-1.000000	-1.000000	-1.000000	-1.000000	14.206897	0.000000	-1.000000	-1.000000	356259.000000	1772914649.139654
3727.035000	90906.795000	-10761.030000	-25345.125000	0.000000	0.000000	0.000000	0.000000	20.623547	32.991730	8.374456	16.467288	0.000000	0.000000	-0.000000	-0.000000	-4.501700	2.990960	-2.411080	-0.064331	0.764036	0.659422	-1.000000	-1.000000	-1.000000	-1.000000	-1.000000	-1.000000	-1.000000	14.206897	0.000000	-1.000000	-1.000000	356260.000000	1772914649.139657
3676.905000	90877.545000	-10802.745000	-25395.615000	0.000000	0.000000	0.000000	0.000000	16.274753	21.870379	10.198441	14.875480	0.000000	0.000000	-0.000000	-0.000000	-4.501700	2.990960	-2.411080	-0.064331	0.764036	0.659422	-1.000000	-1.000000	-1.000000	-1.000000	-1.000000	-1.000000	-1.000000	14.206897	0.000000	-1.000000	-1.000000	356261.000000	1772914649.143532
3656.115000	90854.955000	-10816.155000	-25415.820000	0.000000	0.000000	0.000000	0.000000	-1.772148	-1.451090	0.814840	-1.020486	0.000000	0.000000	-0.000000	-0.000000	-4.501700	2.990960	-2.411080	-0.064331	0.764036	0.659422	-1.000000	-1.000000	-1.000000	-1.000000	-1.000000	-1.000000	-1.000000	14.206897	0.000000	-1.000000	-1.000000	356262.000000	1772914649.143535
3661.110000	90850.365000	-10809.990000	-25408.935000	0.000000	0.000000	0.000000	0.000000	-21.969991	-23.817811	-12.554424	-20.397586	0.000000	0.000000	-0.000000	-0.000000	-4.501700	2.990960	-2.411080	-0.064331	0.764036	0.659422	-1.000000	-1.000000	-1.000000	-1.000000	-1.000000	-1.000000	-1.000000	14.206897	0.000000	-1.000000	-1.000000	356263.000000	1772914649.147628
3672.045000	90865.845000	-10807.830000	-25400.385000	0.000000	0.000000	0.000000	0.000000	-29.247054	-32.706309	-18.165127	-27.860053	0.000000	0.000000	-0.000000	-0.000000	-4.501700	2.990960	-2.411080	-0.064331	0.764036	0.659422	-1.000000	-1.000000	-1.000000	-1.000000	-1.000000	-1.000000	-1.000000	14.206897	0.000000	-1.000000	-1.000000	356264.000000	1772914649.147631
3703.095000	90894.420000	-10786.815000	-25371.045000	0.000000	0.000000	0.000000	0.000000	-17.558914	-23.273377	-10.788852	-16.879859	0.000000	0.000000	-0.000000	-0.000000	-4.501700	2.990960	-2.411080	-0.064331	0.764036	0.659422	-1.000000	-1.000000	-1.000000	-1.000000	-1.000000	-1.000000	-1.000000	14.206897	0.000000	-1.000000	-1.000000	356265.000000	1772914649.151666
3735.405000	90922.635000	-10758.825000	-25332.795000	0.000000	0.000000	0.000000	0.000000	6.707079	-0.730148	5.538017	6.633305	0.000000	0.000000	-0.000000	-0.000000	-4.501700	2.990960	-2.411080	-0.064331	0.764036	0.659422	-1.000000	-1.000000	-1.000000	-1.000000	-1.000000	-1.000000	-1.000000	14.206897	0.000000	-1.000000	-1.000000	356266.000000	1772914649.151669
3731.130000	90931.815000	-10762.155000	-25326.900000	0.000000	0.000000	0.000000	0.000000	29.838124	22.685719	21.634827	29.754050	0.000000	0.000000	-0.000000	-0.000000	-4.501700	2.990960	-2.411080	-0.064331	0.764036	0.659422	-1.000000	-1.000000	-1.000000	-1.000000	-1.000000	-1.000000	-1.000000	14.206897	0.000000	-1.000000	-1.000000	356267.000000	1772914649.155656
3726.720000	90920.880000	-10756.755000	-25321.140000	0.000000	0.000000	0.000000	0.000000	38.495695	34.215680	28.229489	39.713854	0.000000	0.000000	-0.000000	-0.000000	-4.501700	2.990960	-2.411080	-0.064331	0.764036	0.659422	-1.000000	-1.000000	-1.000000	-1.000000	-1.000000	-1.000000	-1.000000	14.206897	0.000000	-1.000000	-1.000000	356268.000000	1772914649.155659
3712.500000	90890.910000	-10760.355000	-25334.820000	0.000000	0.000000	0.000000	0.000000	27.688830	27.361258	21.477485	30.809326	0.000000	0.000000	-0.000000	-0.000000	-6.378680	1.052940	-2.929920	-0.062256	0.767881	0.660032	-1.000000	-1.000000	-1.000000	-1.000000	-1.000000	-1.000000	-1.000000	14.206897	0.000000	-1.000000	-1.000000	356269.000000	1772914649.159637
3723.075000	90863.820000	-10754.865000	-25362.630000	0.000000	0.000000	0.000000	0.000000	4.176714	5.484142	5.487360	7.261769	0.000000	0.000000	-0.000000	-0.000000	-6.378680	1.052940	-2.929920	-0.062256	0.767881	0.660032	-1.000000	-1.000000	-1.000000	-1.000000	-1.000000	-1.000000	-1.000000	14.206897	0.000000	-1.000000	-1.000000	356270.000000	1772914649.159641
3715.605000	90856.665000	-10757.250000	-25378.515000	0.000000	0.000000	0.000000	0.000000	-18.657054	-19.681891	-11.204077	-20.000356	0.000000	0.000000	-0.000000	-0.000000	-6.378680	1.052940	-2.929920	-0.062256	0.767881	0.660032	-1.000000	-1.000000	-1.000000	-1.000000	-1.000000	-1.000000	-1.000000	14.206897	0.000000	-1.000000	-1.000000	356271.000000	1772914649.163663
3694.410000	90870.930000	-10770.570000	-25376.175000	0.000000	0.000000	0.000000	0.000000	-30.660428	-34.193295	-21.630201	-38.511291	0.000000	0.000000	-0.000000	-0.000000	-6.378680	1.052940	-2.929920	-0.062256	0.767881	0.660032	-1.000000	-1.000000	-1.000000	-1.000000	-1.000000	-1.000000	-1.000000	14.206897	0.000000	-1.000000	-1.000000	356272.000000	1772914649.163666
3717.855000	90899.235000	-10762.110000	-25359.705000	0.000000	0.000000	0.000000	0.000000	-29.593398	-29.891381	-23.408989	-39.609806	0.000000	0.000000	-0.000000	-0.000000	-6.378680	1.052940	-2.929920	-0.062256	0.767881	0.660032	-1.000000	-1.000000	-1.000000	-1.000000	-1.000000	-1.000000	-1.000000	14.206897	0.000000	-1.000000	-1.000000	356273.000000	1772914649.167767
3746.205000	90928.395000	-10744.830000	-25330.905000	0.000000	0.000000	0.000000	0.000000	-17.629998	-9.258534	-17.199924	-22.881694	0.000000	0.000000	-0.000000	-0.000000	-6.378680	1.052940	-2.929920	-0.062256	0.767881	0.660032	-1.000000	-1.000000	-1.000000	-1.000000	-1.000000	-1.000000	-1.000000	14.206897	0.000000	-1.000000	-1.000000	356274.000000	1772914649.167769
3749.805000	90941.895000	-10742.355000	-25316.415000	0.000000	0.000000	0.000000	0.000000	0.529332	16.116763	-5.508535	3.316182	0.000000	0.000000	-0.000000	-0.000000	-6.378680	1.052940	-2.929920	-0.062256	0.767881	0.660032	-1.000000	-1.000000	-1.000000	-1.000000	-1.000000	-1.000000	-1.000000	14.206897	0.000000	-1.000000	-1.000000	356275.000000	1772914649.171683
3762.360000	90934.380000	-10724.580000	-25301.025000	0.000000	0.000000	0.000000	0.000000	16.783428	32.196269	6.933852	26.143775	0.000000	0.000000	-0.000000	-0.000000	-6.378680	1.052940	-2.929920	-0.062256	0.767881	0.660032	-1.000000	-1.000000	-1.000000	-1.000000	-1.000000	-1.000000	-1.000000	14.206897	0.000000	-1.000000	-1.000000	356276.000000	1772914649.171688
3686.805000	90904.050000	-10798.785000	-25379.910000	0.000000	0.000000	0.000000	0.000000	22.245371	30.159846	13.764919	33.878496	0.000000	0.000000	-0.000000	-0.000000	-6.378680	1.052940	-2.929920	-0.062256	0.767881	0.660032	-1.000000	-1.000000	-1.000000	-1.000000	-1.000000	-1.000000	-1.000000	14.206897	0.000000	-1.000000	-1.000000	356277.000000	1772914649.175637
3669.390000	90874.755000	-10814.760000	-25413.390000	0.000000	0.000000	0.000000	0.000000	12.516397	11.085244	9.781425	21.069146	0.000000	0.000000	-0.000000	-0.000000	-6.378680	1.052940	-2.929920	-0.062256	0.767881	0.660032	-1.000000	-1.000000	-1.000000	-1.000000	-1.000000	-1.000000	-1.000000	14.206897	0.000000	-1.000000	-1.000000	356278.000000	1772914649.175640
3642.795000	90854.325000	-10834.335000	-25435.530000	0.000000	0.000000	0.000000	0.000000	-6.784710	-14.566468	-2.783207	-5.394775	0.000000	0.000000	-0.000000	-0.000000	-6.989080	5.005280	-5.463080	-0.060242	0.766050	0.663145	-1.000000	-1.000000	-1.000000	-1.000000	-1.000000	-1.000000	-1.000000	14.206897	0.000000	-1.000000	-1.000000	356279.000000	1772914649.180307
3652.380000	90856.980000	-10823.670000	-25415.100000	0.000000	0.000000	0.000000	0.000000	-21.926400	-32.651988	-13.434834	-27.653488	-0.000000	0.000000	-0.000000	-0.000000	-6.989080	5.005280	-5.463080	-0.060242	0.766050	0.663145	-1.000000	-1.000000	-1.000000	-1.000000	-1.000000	-1.000000	-1.000000	14.206897	0.000000	-1.000000	-1.000000	356280.000000	1772914649.180310
3669.975000	90880.335000	-10812.015000	-25393.410000	0.000000	0.000000	0.000000	0.000000	-21.755449	-33.133106	-12.734436	-30.099411	-0.000000	0.000000	-0.000000	-0.000000	-6.989080	5.005280	-5.463080	-0.060242	0.766050	0.663145	-1.000000	-1.000000	-1.000000	-1.000000	-1.000000	-1.000000	-1.000000	14.206897	0.000000	-1.000000	-1.000000	356281.000000	1772914649.183667
3694.815000	90911.835000	-10793.025000	-25365.690000	0.000000	0.000000	0.000000	0.000000	-5.578723	-15.437989	-0.090168	-11.244569	-0.000000	0.000000	-0.000000	-0.000000	-6.989080	5.005280	-5.463080	-0.060242	0.766050	0.663145	-1.000000	-1.000000	-1.000000	-1.000000	-1.000000	-1.000000	-1.000000	14.206897	0.000000	-1.000000	-1.000000	356282.000000	1772914649.183670
3709.485000	90932.760000	-10782.810000	-25351.245000	0.000000	0.000000	0.000000	0.000000	17.144419	11.194174	16.723871	16.391463	-0.000000	0.000000	-0.000000	-0.000000	-6.989080	5.005280	-5.463080	-0.060242	0.766050	0.663145	-1.000000	-1.000000	-1.000000	-1.000000	-1.000000	-1.000000	-1.000000	14.206897	0.000000	-1.000000	-1.000000	356283.000000	1772914649.187588
3722.985000	90933.480000	-10765.485000	-25335.900000	0.000000	0.000000	0.000000	0.000000	33.366585	32.529675	27.704719	36.141532	-0.000000	0.000000	-0.000000	-0.000000	-6.989080	5.005280	-5.463080	-0.060242	0.766050	0.663145	-1.000000	-1.000000	-1.000000	-1.000000	-1.000000	-1.000000	-1.000000	14.206897	0.000000	-1.000000	-1.000000	356284.000000	1772914649.187590
3732.570000	90914.130000	-10746.495000	-25320.465000	0.000000	0.000000	0.000000	0.000000	34.676993	37.038701	27.333394	38.113685	-0.000000	0.000000	-0.000000	-0.000000	-6.989080	5.005280	-5.463080	-0.060242	0.766050	0.663145	-1.000000	-1.000000	-1.000000	-1.000000	-1.000000	-1.000000	-1.000000	14.206897	0.000000	-1.000000	-1.000000	356285.000000	1772914649.191616
3724.020000	90885.555000	-10738.485000	-25319.205000	0.000000	0.000000	0.000000	0.000000	21.134342	22.236822	16.751291	23.340341	-0.000000	0.000000	-0.000000	-0.000000	-6.989080	5.005280	-5.463080	-0.060242	0.766050	0.663145	-1.000000	-1.000000	-1.000000	-1.000000	-1.000000	-1.000000	-1.000000	14.206897	0.000000	-1.000000	-1.000000	356286.000000	1772914649.191618
3723.300000	90860.445000	-10731.645000	-25327.755000	0.000000	0.000000	0.000000	0.000000	-0.553547	-4.041063	1.087414	0.085624	-0.000000	0.000000	-0.000000	-0.000000	-6.989080	5.005280	-5.463080	-0.060242	0.766050	0.663145	-1.000000	-1.000000	-1.000000	-1.000000	-1.000000	-1.000000	-1.000000	14.206897	0.000000	-1.000000	-1.000000	356287.000000	1772914649.195594
3727.350000	90858.150000	-10732.365000	-25319.070000	0.000000	0.000000	0.000000	0.000000	-20.827993	-27.941875	-13.935011	-21.670719	-0.000000	0.000000	-0.000000	-0.000000	-6.989080	5.005280	-5.463080	-0.060242	0.766050	0.663145	-1.000000	-1.000000	-1.000000	-1.000000	-1.000000	-1.000000	-1.000000	14.206897	0.000000	-1.000000	-1.000000	356288.000000	1772914649.195597
3669.885000	90872.415000	-10813.590000	-25394.940000	0.000000	0.000000	0.000000	0.000000	-32.527170	-36.937050	-25.339584	-35.089208	-0.000000	0.000000	-0.000000	-0.000000	-10.254720	6.165040	-6.058220	-0.059326	0.766294	0.661131	-1.000000	-1.000000	-1.000000	-1.000000	-1.000000	-1.000000	-1.000000	14.206897	0.000000	-1.000000	-1.000000	356289.000000	1772914649.199723
3693.645000	90902.880000	-10805.670000	-25382.340000	0.000000	0.000000	0.000000	0.000000	-34.043200	-26.482285	-33.011089	-38.772238	-0.000000	0.000000	-0.000000	-0.000000	-10.254720	6.165040	-6.058220	-0.059326	0.766294	0.661131	-1.000000	-1.000000	-1.000000	-1.000000	-1.000000	-1.000000	-1.000000	14.206897	0.000000	-1.000000	-1.000000	356290.000000	1772914649.199726
3736.800000	90933.885000	-10749.915000	-25299.405000	0.000000	0.000000	0.000000	0.000000	-25.027351	-2.265599	-32.924940	-30.941237	-0.000000	0.000000	-0.000000	-0.000000	-10.254720	6.165040	-6.058220	-0.059326	0.766294	0.661131	-1.000000	-1.000000	-1.000000	-1.000000	-1.000000	-1.000000	-1.000000	14.206897	0.000000	-1.000000	-1.000000	356291.000000	1772914649.203730
3764.835000	90946.260000	-10728.180000	-25275.015000	0.000000	0.000000	0.000000	0.000000	-5.391032	22.997960	-18.163358	-8.497535	-0.000000	0.000000	-0.000000	-0.000000	-10.254720	6.165040	-6.058220	-0.059326	0.766294	0.661131	-1.000000	-1.000000	-1.000000	-1.000000	-1.000000	-1.000000	-1.000000	14.206897	0.000000	-1.000000	-1.000000	356292.000000	1772914649.203733
3746.025000	90931.635000	-10766.880000	-25334.415000	0.000000	0.000000	0.000000	0.000000	17.747434	35.953582	7.380274	20.346034	-0.000000	0.000000	-0.000000	-0.000000	-10.254720	6.165040	-6.058220	-0.059326	0.766294	0.661131	-1.000000	-1.000000	-1.000000	-1.000000	-1.000000	-1.000000	-1.000000	14.206897	0.000000	-1.000000	-1.000000	356293.000000	1772914649.216242
3688.020000	90901.080000	-10822.140000	-25394.625000	0.000000	0.000000	0.000000	0.000000	30.181141	29.404776	26.594040	35.271896	-0.000000	0.000000	-0.000000	-0.000000	-10.254720	6.165040	-6.058220	-0.059326	0.766294	0.661131	-1.000000	-1.000000	-1.000000	-1.000000	-1.000000	-1.000000	-1.000000	14.206897	0.000000	-1.000000	-1.000000	356294.000000	1772914649.216245
3647.520000	90871.560000	-10821.150000	-25422.390000	0.000000	0.000000	0.000000	0.000000	22.260316	6.554948	26.408974	24.543866	-0.000000	0.000000	-0.000000	-0.000000	-10.254720	6.165040	-6.058220	-0.059326	0.766294	0.661131	-1.000000	-1.000000	-1.000000	-1.000000	-1.000000	-1.000000	-1.000000	14.206897	0.000000	-1.000000	-1.000000	356295.000000	1772914649.216250
3665.970000	90856.710000	-10798.515000	-25410.510000	0.000000	0.000000	0.000000	0.000000	-0.101539	-20.287033	11.899981	-1.263591	-0.000000	0.000000	-0.000000	-0.000000	-10.254720	6.165040	-6.058220	-0.059326	0.766294	0.661131	-1.000000	-1.000000	-1.000000	-1.000000	-1.000000	-1.000000	-1.000000	14.206897	0.000000	-1.000000	-1.000000	356296.000000	1772914649.216252
3692.610000	90865.980000	-10776.285000	-25377.165000	0.000000	0.000000	0.000000	0.000000	-18.458909	-36.445707	-0.880032	-19.710754	-0.000000	0.000000	-0.000000	-0.000000	-10.254720	6.165040	-6.058220	-0.059326	0.766294	0.661131	-1.000000	-1.000000	-1.000000	-1.000000	-1.000000	-1.000000	-1.000000	14.206897	0.000000	-1.000000	-1.000000	356297.000000	1772914649.216256
3695.535000	90896.985000	-10775.610000	-25371.090000	0.000000	0.000000	0.000000	0.000000	-18.761436	-32.960779	-2.395351	-17.130589	-0.000000	0.000000	-0.000000	-0.000000	-10.254720	6.165040	-6.058220	-0.059326	0.766294	0.661131	-1.000000	-1.000000	-1.000000	-1.000000	-1.000000	-1.000000	-1.000000	14.206897	0.000000	-1.000000	-1.000000	356298.000000	1772914649.216258
3704.535000	90925.425000	-10787.670000	-25348.680000	0.000000	0.000000	0.000000	0.000000	-3.431377	-11.502392	3.579301	1.724680	-0.000000	0.000000	-0.000000	-0.000000	-16.267160	15.855140	-8.820280	-0.057922	0.763670	0.659910	-1.000000	-1.000000	-1.000000	-1.000000	-1.000000	-1.000000	-1.000000	14.206897	0.000000	-1.000000	-1.000000	356299.000000	1772914649.219661
3720.105000	90943.470000	-10803.780000	-25314.570000	0.000000	0.000000	0.000000	0.000000	14.426752	16.335161	7.330823	21.969413	-0.000000	0.000000	-0.000000	-0.000000	-16.267160	15.855140	-8.820280	-0.057922	0.763670	0.659910	-1.000000	-1.000000	-1.000000	-1.000000	-1.000000	-1.000000	-1.000000	14.206897	0.000000	-1.000000	-1.000000	356300.000000	1772914649.219663
3707.910000	90938.745000	-10794.105000	-25313.445000	0.000000	0.000000	0.000000	0.000000	23.396704	35.428696	3.876635	31.519641	-0.000000	0.000000	-0.000000	-0.000000	-16.267160	15.855140	-8.820280	-0.057922	0.763670	0.659910	-1.000000	-1.000000	-1.000000	-1.000000	-1.000000	-1.000000	-1.000000	14.206897	0.000000	-1.000000	-1.000000	356301.000000	1772914649.224343
3720.555000	90919.530000	-10746.720000	-25294.320000	0.000000	0.000000	0.000000	0.000000	19.599542	35.657683	-2.711666	26.093856	-0.000000	0.000000	-0.000000	-0.000000	-16.267160	15.855140	-8.820280	-0.057922	0.763670	0.659910	-1.000000	-1.000000	-1.000000	-1.000000	-1.000000	-1.000000	-1.000000	14.206897	0.000000	-1.000000	-1.000000	356302.000000	1772914649.224346
3733.380000	90892.350000	-10773.675000	-25310.745000	0.000000	0.000000	0.000000	0.000000	7.112979	17.303836	-5.529366	8.815418	-0.000000	0.000000	-0.000000	-0.000000	-16.267160	15.855140	-8.820280	-0.057922	0.763670	0.659910	-1.000000	-1.000000	-1.000000	-1.000000	-1.000000	-1.000000	-1.000000	14.206897	0.000000	-1.000000	-1.000000	356303.000000	1772914649.227658
3740.040000	90875.025000	-10764.450000	-25289.100000	0.000000	0.000000	0.000000	0.000000	-5.892124	-9.549201	-4.094120	-12.170259	-0.000000	0.000000	-0.000000	-0.000000	-16.267160	15.855140	-8.820280	-0.057922	0.763670	0.659910	-1.000000	-1.000000	-1.000000	-1.000000	-1.000000	-1.000000	-1.000000	14.206897	0.000000	-1.000000	-1.000000	356304.000000	1772914649.227660
3744.720000	90877.185000	-10725.840000	-25269.480000	0.000000	0.000000	0.000000	0.000000	-13.577093	-30.701513	-1.947404	-27.160957	-0.000000	0.000000	-0.000000	-0.000000	-16.267160	15.855140	-8.820280	-0.057922	0.763670	0.659910	-1.000000	-1.000000	-1.000000	-1.000000	-1.000000	-1.000000	-1.000000	14.206897	0.000000	-1.000000	-1.000000	356305.000000	1772914649.231708
3790.935000	90903.150000	-10685.745000	-25252.245000	0.000000	0.000000	0.000000	0.000000	-14.229473	-35.207507	0.850655	-29.606084	-0.000000	0.000000	-0.000000	-0.000000	-16.267160	15.855140	-8.820280	-0.057922	0.763670	0.659910	-1.000000	-1.000000	-1.000000	-1.000000	-1.000000	-1.000000	-1.000000	14.206897	0.000000	-1.000000	-1.000000	356306.000000	1772914649.231711
3853.035000	90935.145000	-10630.845000	-25254.090000	0.000000	0.000000	0.000000	0.000000	-7.614711	-20.918952	5.963373	-20.614841	-0.000000	0.000000	-0.000000	-0.000000	-16.267160	15.855140	-8.820280	-0.057922	0.763670	0.659910	-1.000000	-1.000000	-1.000000	-1.000000	-1.000000	-1.000000	-1.000000	14.206897	0.000000	-1.000000	-1.000000	356307.000000	1772914649.235739
3773.340000	90950.085000	-10714.680000	-25335.765000	0.000000	0.000000	0.000000	0.000000	2.375376	4.121394	9.855882	-9.093981	-0.000000	0.000000	-0.000000	-0.000000	-16.267160	15.855140	-8.820280	-0.057922	0.763670	0.659910	-1.000000	-1.000000	-1.000000	-1.000000	-1.000000	-1.000000	-1.000000	14.206897	0.000000	-1.000000	-1.000000	356308.000000	1772914649.235742
3679.740000	90943.605000	-10806.030000	-25384.455000	0.000000	0.000000	0.000000	0.000000	3.838359	25.670569	2.591072	-5.497774	-0.000000	0.000000	-0.000000	-0.000000	-16.175600	15.198960	-12.665800	-0.060119	0.753538	0.668089	-1.000000	-1.000000	-1.000000	-1.000000	-1.000000	-1.000000	-1.000000	14.206897	0.000000	-1.000000	-1.000000	356309.000000	1772914649.239735
3713.805000	90925.740000	-10790.595000	-25364.205000	0.000000	0.000000	0.000000	0.000000	-9.979374	31.607664	-18.801103	-10.405439	-0.000000	0.000000	-0.000000	-0.000000	-16.175600	15.198960	-12.665800	-0.060119	0.753538	0.668089	-1.000000	-1.000000	-1.000000	-1.000000	-1.000000	-1.000000	-1.000000	14.206897	0.000000	-1.000000	-1.000000	356310.000000	1772914649.239738
3750.930000	90891.585000	-10805.355000	-25338.915000	0.000000	0.000000	0.000000	0.000000	-25.569630	19.196679	-39.099792	-11.806426	-0.000000	0.000000	-0.000000	-0.000000	-16.175600	15.198960	-12.665800	-0.060119	0.753538	0.668089	-1.000000	-1.000000	-1.000000	-1.000000	-1.000000	-1.000000	-1.000000	14.206897	0.000000	-1.000000	-1.000000	356311.000000	1772914649.243632
3679.695000	90863.640000	-10820.610000	-25345.710000	0.000000	0.000000	0.000000	0.000000	-24.910030	-4.073180	-39.883969	-0.019292	-0.000000	0.000000	-0.000000	-0.000000	-16.175600	15.198960	-12.665800	-0.060119	0.753538	0.668089	-1.000000	-1.000000	-1.000000	-1.000000	-1.000000	-1.000000	-1.000000	14.206897	0.000000	-1.000000	-1.000000	356312.000000	1772914649.243634
3643.110000	90858.465000	-10773.270000	-25396.245000	0.000000	0.000000	0.000000	0.000000	-9.532137	-25.191079	-18.157672	18.909267	-0.000000	0.000000	-0.000000	-0.000000	-16.175600	15.198960	-12.665800	-0.060119	0.753538	0.668089	-1.000000	-1.000000	-1.000000	-1.000000	-1.000000	-1.000000	-1.000000	14.206897	0.000000	-1.000000	-1.000000	356313.000000	1772914649.247658
3703.860000	90879.345000	-10705.185000	-25381.980000	0.000000	0.000000	0.000000	0.000000	7.760156	-32.238379	16.413262	30.433001	-0.000000	0.000000	-0.000000	-0.000000	-16.175600	15.198960	-12.665800	-0.060119	0.753538	0.668089	-1.000000	-1.000000	-1.000000	-1.000000	-1.000000	-1.000000	-1.000000	14.206897	0.000000	-1.000000	-1.000000	356314.000000	1772914649.247669
3757.905000	90909.315000	-10726.605000	-25329.690000	0.000000	0.000000	0.000000	0.000000	22.829101	-20.686560	48.772454	29.238610	-0.000000	0.000000	-0.000000	-0.000000	-16.175600	15.198960	-12.665800	-0.060119	0.753538	0.668089	-1.000000	-1.000000	-1.000000	-1.000000	-1.000000	-1.000000	-1.000000	14.206897	0.000000	-1.000000	-1.000000	356315.000000	1772914649.251702
3815.685000	90936.135000	-10733.895000	-25277.895000	0.000000	0.000000	0.000000	0.000000	37.237093	3.590985	61.685296	22.819272	-0.000000	0.000000	-0.000000	-0.000000	-16.175600	15.198960	-12.665800	-0.060119	0.753538	0.668089	-1.000000	-1.000000	-1.000000	-1.000000	-1.000000	-1.000000	-1.000000	14.206897	0.000000	-1.000000	-1.000000	356316.000000	1772914649.251705
3828.915000	90940.860000	-10790.190000	-25261.020000	0.000000	0.000000	0.000000	0.000000	46.492557	27.236392	45.560166	18.256525	-0.000000	0.000000	-0.000000	-0.000000	-16.175600	15.198960	-12.665800	-0.060119	0.753538	0.668089	-1.000000	-1.000000	-1.000000	-1.000000	-1.000000	-1.000000	-1.000000	14.206897	0.000000	-1.000000	-1.000000	356317.000000	1772914649.255593
3810.420000	90928.980000	-10771.245000	-25199.460000	0.000000	0.000000	0.000000	0.000000	41.029956	36.975482	8.038696	14.430652	-0.000000	0.000000	-0.000000	-0.000000	-16.175600	15.198960	-12.665800	-0.060119	0.753538	0.668089	-1.000000	-1.000000	-1.000000	-1.000000	-1.000000	-1.000000	-1.000000	14.206897	0.000000	-1.000000	-1.000000	356318.000000	1772914649.255598
3790.080000	90901.260000	-10693.890000	-25212.150000	0.000000	0.000000	0.000000	0.000000	16.262069	27.231685	-28.122645	7.047502	-0.000000	0.000000	-0.000000	-0.000000	-11.338180	20.539960	-20.524700	-0.058349	0.732481	0.673338	-1.000000	-1.000000	-1.000000	-1.000000	-1.000000	-1.000000	-1.000000	14.206897	0.000000	-1.000000	-1.000000	356319.000000	1772914649.259789
3694.320000	90864.405000	-10777.905000	-25324.695000	0.000000	0.000000	0.000000	0.000000	-21.416575	2.915737	-42.658632	-8.404523	-0.000000	0.000000	-0.000000	-0.000000	-11.338180	20.539960	-20.524700	-0.058349	0.732481	0.673338	-1.000000	-1.000000	-1.000000	-1.000000	-1.000000	-1.000000	-1.000000	14.206897	0.000000	-1.000000	-1.000000	356320.000000	1772914649.259794
3659.355000	90843.030000	-10803.690000	-25375.500000	0.000000	0.000000	0.000000	0.000000	-57.841921	-23.733482	-36.652116	-34.102575	-0.000000	0.000000	-0.000000	-0.000000	-11.338180	20.539960	-20.524700	-0.058349	0.732481	0.673338	-1.000000	-1.000000	-1.000000	-1.000000	-1.000000	-1.000000	-1.000000	14.206897	0.000000	-1.000000	-1.000000	356321.000000	1772914649.263750
3714.255000	90854.280000	-10785.330000	-25378.470000	0.000000	0.000000	0.000000	0.000000	-75.155716	-39.114005	-23.763291	-60.085738	-0.000000	0.000000	-0.000000	-0.000000	-11.338180	20.539960	-20.524700	-0.058349	0.732481	0.673338	-1.000000	-1.000000	-1.000000	-1.000000	-1.000000	-1.000000	-1.000000	14.206897	0.000000	-1.000000	-1.000000	356322.000000	1772914649.263755
3761.505000	90881.955000	-10826.595000	-25388.820000	0.000000	0.000000	0.000000	0.000000	-58.827638	-34.622840	-10.943020	-66.574782	-0.000000	0.000000	-0.000000	-0.000000	-11.338180	20.539960	-20.524700	-0.058349	0.732481	0.673338	-1.000000	-1.000000	-1.000000	-1.000000	-1.000000	-1.000000	-1.000000	14.206897	0.000000	-1.000000	-1.000000	356323.000000	1772914649.267807
3762.405000	90908.010000	-10807.740000	-25335.855000	0.000000	0.000000	0.000000	0.000000	-12.667633	-11.862766	0.908731	-42.582394	-0.000000	0.000000	-0.000000	-0.000000	-11.338180	20.539960	-20.524700	-0.058349	0.732481	0.673338	-1.000000	-1.000000	-1.000000	-1.000000	-1.000000	-1.000000	-1.000000	14.206897	0.000000	-1.000000	-1.000000	356324.000000	1772914649.267810
3747.465000	90921.150000	-10768.725000	-25319.250000	0.000000	0.000000	0.000000	0.000000	37.725131	17.198511	12.027830	3.900537	-0.000000	0.000000	-0.000000	-0.000000	-11.338180	20.539960	-20.524700	-0.058349	0.732481	0.673338	-1.000000	-1.000000	-1.000000	-1.000000	-1.000000	-1.000000	-1.000000	14.206897	0.000000	-1.000000	-1.000000	356325.000000	1772914649.271672
3743.460000	90914.265000	-10809.180000	-25329.420000	0.000000	0.000000	0.000000	0.000000	64.377249	36.917218	21.955601	50.543005	-0.000000	0.000000	-0.000000	-0.000000	-11.338180	20.539960	-20.524700	-0.058349	0.732481	0.673338	-1.000000	-1.000000	-1.000000	-1.000000	-1.000000	-1.000000	-1.000000	14.206897	0.000000	-1.000000	-1.000000	356326.000000	1772914649.271675
