Channel1	Channel2	Channel3	Channel4	Channel5	Channel6	Channel7	Channel8	FilteredChannel1	FilteredChannel2	FilteredChannel3	FilteredChannel4	FilteredChannel5	FilteredChannel6	FilteredChannel7	FilteredChannel8	GyroX	GyroY	GyroZ	AccX	AccY	AccZ	PPG1	PPG2	rawPPG1	rawPPG2	rawPPG3	Hr	Hrv	Battery	Trigger	PhysicalTrigger	AutoTrigger	NumMeasurements	Timestamp
6275.160000	93357.540000	-11883.240000	-25626.060000	0.000000	0.000000	0.000000	0.000000	-18.220719	-19.163078	-15.420547	-17.583368	0.000000	0.000000	-0.000000	-0.000000	5.478340	-0.335720	-0.625660	-0.129028	0.846494	0.522643	-1.000000	-1.000000	-1.000000	-1.000000	-1.000000	-1.000000	-1.000000	16.482759	0.000000	-1.000000	-1.000000	329837.000000	1772914596.279398
6296.400000	93378.510000	-11867.940000	-25608.510000	0.000000	0.000000	0.000000	0.000000	5.974975	4.345195	1.631147	2.914086	0.000000	0.000000	-0.000000	-0.000000	5.478340	-0.335720	-0.625660	-0.129028	0.846494	0.522643	-1.000000	-1.000000	-1.000000	-1.000000	-1.000000	-1.000000	-1.000000	16.482759	0.000000	-1.000000	-1.000000	329838.000000	1772914596.279401
6304.905000	93379.860000	-11858.040000	-25597.530000	0.000000	0.000000	0.000000	0.000000	24.720641	25.330345	15.500976	19.432974	0.000000	0.000000	-0.000000	-0.000000	5.478340	-0.335720	-0.625660	-0.129028	0.846494	0.522643	-1.000000	-1.000000	-1.000000	-1.000000	-1.000000	-1.000000	-1.000000	16.482759	0.000000	-1.000000	-1.000000	329839.000000	1772914596.285830
6297.300000	93362.535000	-11859.030000	-25602.705000	0.000000	0.000000	0.000000	0.000000	31.256735	32.454539	22.187272	26.675323	0.000000	0.000000	-0.000000	-0.000000	5.478340	-0.335720	-0.625660	-0.129028	0.846494	0.522643	-1.000000	-1.000000	-1.000000	-1.000000	-1.000000	-1.000000	-1.000000	16.482759	0.000000	-1.000000	-1.000000	329840.000000	1772914596.285833
6283.035000	93338.055000	-11865.870000	-25615.530000	0.000000	0.000000	0.000000	0.000000	24.144662	22.023530	20.253648	22.924739	0.000000	0.000000	-0.000000	-0.000000	4.242280	0.274680	-0.839300	-0.127929	0.848264	0.521971	-1.000000	-1.000000	-1.000000	-1.000000	-1.000000	-1.000000	-1.000000	16.482759	0.000000	-1.000000	-1.000000	329841.000000	1772914596.288944
6275.745000	93318.795000	-11870.370000	-25627.140000	0.000000	0.000000	0.000000	0.000000	7.445197	0.025056	10.923892	10.203488	0.000000	0.000000	-0.000000	-0.000000	4.242280	0.274680	-0.839300	-0.127929	0.848264	0.521971	-1.000000	-1.000000	-1.000000	-1.000000	-1.000000	-1.000000	-1.000000	16.482759	0.000000	-1.000000	-1.000000	329842.000000	1772914596.288947
6280.830000	93308.625000	-11865.015000	-25619.220000	0.000000	0.000000	0.000000	0.000000	-10.322106	-21.446933	-1.351710	-5.286400	0.000000	0.000000	-0.000000	-0.000000	4.242280	0.274680	-0.839300	-0.127929	0.848264	0.521971	-1.000000	-1.000000	-1.000000	-1.000000	-1.000000	-1.000000	-1.000000	16.482759	0.000000	-1.000000	-1.000000	329843.000000	1772914596.291474
6288.480000	93317.805000	-11862.720000	-25609.005000	0.000000	0.000000	0.000000	0.000000	-20.457876	-31.150080	-10.763183	-15.630417	0.000000	0.000000	-0.000000	-0.000000	4.242280	0.274680	-0.839300	-0.127929	0.848264	0.521971	-1.000000	-1.000000	-1.000000	-1.000000	-1.000000	-1.000000	-1.000000	16.482759	0.000000	-1.000000	-1.000000	329844.000000	1772914596.291477
6302.295000	93341.835000	-11857.140000	-25597.980000	0.000000	0.000000	0.000000	0.000000	-19.122412	-24.405481	-13.685685	-16.175418	0.000000	0.000000	-0.000000	-0.000000	4.242280	0.274680	-0.839300	-0.127929	0.848264	0.521971	-1.000000	-1.000000	-1.000000	-1.000000	-1.000000	-1.000000	-1.000000	16.482759	0.000000	-1.000000	-1.000000	329845.000000	1772914596.295303
6315.210000	93367.035000	-11851.740000	-25591.275000	0.000000	0.000000	0.000000	0.000000	-8.916378	-4.933707	-10.427452	-8.542198	0.000000	0.000000	-0.000000	-0.000000	4.242280	0.274680	-0.839300	-0.127929	0.848264	0.521971	-1.000000	-1.000000	-1.000000	-1.000000	-1.000000	-1.000000	-1.000000	16.482759	0.000000	-1.000000	-1.000000	329846.000000	1772914596.295306
6320.700000	93377.205000	-11847.915000	-25586.730000	0.000000	0.000000	0.000000	0.000000	3.549534	17.099348	-4.053039	1.309319	0.000000	0.000000	-0.000000	-0.000000	4.242280	0.274680	-0.839300	-0.127929	0.848264	0.521971	-1.000000	-1.000000	-1.000000	-1.000000	-1.000000	-1.000000	-1.000000	16.482759	0.000000	-1.000000	-1.000000	329847.000000	1772914596.299504
6318.000000	93366.720000	-11845.080000	-25588.260000	0.000000	0.000000	0.000000	0.000000	11.516189	30.021660	1.818028	7.523125	0.000000	0.000000	-0.000000	-0.000000	4.242280	0.274680	-0.839300	-0.127929	0.848264	0.521971	-1.000000	-1.000000	-1.000000	-1.000000	-1.000000	-1.000000	-1.000000	16.482759	0.000000	-1.000000	-1.000000	329848.000000	1772914596.299507
6300.360000	93342.645000	-11854.215000	-25603.020000	0.000000	0.000000	0.000000	0.000000	11.224154	26.789023	4.601396	7.308714	0.000000	0.000000	-0.000000	-0.000000	4.242280	0.274680	-0.839300	-0.127929	0.848264	0.521971	-1.000000	-1.000000	-1.000000	-1.000000	-1.000000	-1.000000	-1.000000	16.482759	0.000000	-1.000000	-1.000000	329849.000000	1772914596.303393
6280.335000	93320.145000	-11869.020000	-25619.670000	0.000000	0.000000	0.000000	0.000000	3.269751	9.125409	3.298893	1.369891	0.000000	0.000000	-0.000000	-0.000000	4.242280	0.274680	-0.839300	-0.127929	0.848264	0.521971	-1.000000	-1.000000	-1.000000	-1.000000	-1.000000	-1.000000	-1.000000	16.482759	0.000000	-1.000000	-1.000000	329850.000000	1772914596.303396
6286.095000	93309.570000	-11863.170000	-25612.605000	0.000000	0.000000	0.000000	0.000000	-7.451600	-13.179595	-0.885997	-6.454398	0.000000	0.000000	-0.000000	-0.000000	3.998120	0.793520	-0.946120	-0.126770	0.848753	0.522215	-1.000000	-1.000000	-1.000000	-1.000000	-1.000000	-1.000000	-1.000000	16.482759	0.000000	-1.000000	-1.000000	329851.000000	1772914596.307401
6299.460000	93317.670000	-11855.160000	-25603.245000	0.000000	0.000000	0.000000	0.000000	-13.663139	-27.809338	-4.356410	-10.552806	0.000000	0.000000	-0.000000	-0.000000	3.998120	0.793520	-0.946120	-0.126770	0.848753	0.522215	-1.000000	-1.000000	-1.000000	-1.000000	-1.000000	-1.000000	-1.000000	16.482759	0.000000	-1.000000	-1.000000	329852.000000	1772914596.307403
6300.630000	93342.015000	-11863.350000	-25613.325000	0.000000	0.000000	0.000000	0.000000	-10.826621	-26.858220	-4.063198	-7.817402	0.000000	0.000000	-0.000000	-0.000000	3.998120	0.793520	-0.946120	-0.126770	0.848753	0.522215	-1.000000	-1.000000	-1.000000	-1.000000	-1.000000	-1.000000	-1.000000	16.482759	0.000000	-1.000000	-1.000000	329853.000000	1772914596.311310
6300.180000	93369.105000	-11868.030000	-25614.720000	0.000000	0.000000	0.000000	0.000000	-1.278153	-11.049857	-0.793707	-0.739581	0.000000	0.000000	-0.000000	-0.000000	3.998120	0.793520	-0.946120	-0.126770	0.848753	0.522215	-1.000000	-1.000000	-1.000000	-1.000000	-1.000000	-1.000000	-1.000000	16.482759	0.000000	-1.000000	-1.000000	329854.000000	1772914596.311312
6306.165000	93383.370000	-11867.670000	-25605.630000	0.000000	0.000000	0.000000	0.000000	8.333309	10.753561	2.419833	5.833362	-0.000000	0.000000	-0.000000	-0.000000	3.998120	0.793520	-0.946120	-0.126770	0.848753	0.522215	-1.000000	-1.000000	-1.000000	-1.000000	-1.000000	-1.000000	-1.000000	16.482759	0.000000	-1.000000	-1.000000	329855.000000	1772914596.315461
6323.805000	93380.580000	-11848.815000	-25583.850000	0.000000	0.000000	0.000000	0.000000	13.215848	26.402516	4.215285	9.654895	-0.000000	0.000000	-0.000000	-0.000000	3.998120	0.793520	-0.946120	-0.126770	0.848753	0.522215	-1.000000	-1.000000	-1.000000	-1.000000	-1.000000	-1.000000	-1.000000	16.482759	0.000000	-1.000000	-1.000000	329856.000000	1772914596.315464
6325.470000	93360.915000	-11840.310000	-25581.240000	0.000000	0.000000	0.000000	0.000000	12.777585	27.225122	5.460658	11.025178	-0.000000	0.000000	-0.000000	-0.000000	3.998120	0.793520	-0.946120	-0.126770	0.848753	0.522215	-1.000000	-1.000000	-1.000000	-1.000000	-1.000000	-1.000000	-1.000000	16.482759	0.000000	-1.000000	-1.000000	329857.000000	1772914596.319406
6330.420000	93338.145000	-11828.565000	-25574.805000	0.000000	0.000000	0.000000	0.000000	8.427015	12.842155	6.655678	9.894828	-0.000000	0.000000	-0.000000	-0.000000	3.998120	0.793520	-0.946120	-0.126770	0.848753	0.522215	-1.000000	-1.000000	-1.000000	-1.000000	-1.000000	-1.000000	-1.000000	16.482759	0.000000	-1.000000	-1.000000	329858.000000	1772914596.319409
6293.970000	93321.540000	-11861.415000	-25608.195000	0.000000	0.000000	0.000000	0.000000	1.215075	-8.758393	6.038014	5.100500	-0.000000	0.000000	-0.000000	-0.000000	3.998120	0.793520	-0.946120	-0.126770	0.848753	0.522215	-1.000000	-1.000000	-1.000000	-1.000000	-1.000000	-1.000000	-1.000000	16.482759	0.000000	-1.000000	-1.000000	329859.000000	1772914596.323726
6280.650000	93320.415000	-11878.785000	-25624.530000	0.000000	0.000000	0.000000	0.000000	-8.073420	-25.814557	0.915887	-3.864565	-0.000000	0.000000	-0.000000	-0.000000	3.998120	0.793520	-0.946120	-0.126770	0.848753	0.522215	-1.000000	-1.000000	-1.000000	-1.000000	-1.000000	-1.000000	-1.000000	16.482759	0.000000	-1.000000	-1.000000	329860.000000	1772914596.323729
6298.920000	93334.860000	-11869.380000	-25612.695000	0.000000	0.000000	0.000000	0.000000	-16.083503	-29.266037	-7.707683	-13.767728	-0.000000	0.000000	-0.000000	-0.000000	4.639040	0.442540	-0.854560	-0.127197	0.845945	0.522154	-1.000000	-1.000000	-1.000000	-1.000000	-1.000000	-1.000000	-1.000000	16.482759	0.000000	-1.000000	-1.000000	329861.000000	1772914596.327452
6317.955000	93358.710000	-11857.995000	-25595.820000	0.000000	0.000000	0.000000	0.000000	-16.734370	-17.412250	-13.547960	-17.718291	-0.000000	0.000000	-0.000000	-0.000000	4.639040	0.442540	-0.854560	-0.127197	0.845945	0.522154	-1.000000	-1.000000	-1.000000	-1.000000	-1.000000	-1.000000	-1.000000	16.482759	0.000000	-1.000000	-1.000000	329862.000000	1772914596.327455
6334.650000	93372.885000	-11846.430000	-25583.400000	0.000000	0.000000	0.000000	0.000000	-7.402673	3.373195	-11.139096	-11.487263	-0.000000	0.000000	-0.000000	-0.000000	4.639040	0.442540	-0.854560	-0.127197	0.845945	0.522154	-1.000000	-1.000000	-1.000000	-1.000000	-1.000000	-1.000000	-1.000000	16.482759	0.000000	-1.000000	-1.000000	329863.000000	1772914596.333508
6337.575000	93375.090000	-11841.480000	-25581.105000	0.000000	0.000000	0.000000	0.000000	6.859819	22.006192	-1.659154	1.468663	-0.000000	0.000000	-0.000000	-0.000000	4.639040	0.442540	-0.854560	-0.127197	0.845945	0.522154	-1.000000	-1.000000	-1.000000	-1.000000	-1.000000	-1.000000	-1.000000	16.482759	0.000000	-1.000000	-1.000000	329864.000000	1772914596.333511
6325.335000	93360.645000	-11847.600000	-25594.065000	0.000000	0.000000	0.000000	0.000000	16.885550	28.691052	8.377548	12.593017	-0.000000	0.000000	-0.000000	-0.000000	4.639040	0.442540	-0.854560	-0.127197	0.845945	0.522154	-1.000000	-1.000000	-1.000000	-1.000000	-1.000000	-1.000000	-1.000000	16.482759	0.000000	-1.000000	-1.000000	329865.000000	1772914596.335463
6309.135000	93337.830000	-11854.890000	-25603.065000	0.000000	0.000000	0.000000	0.000000	16.223896	20.228553	12.501777	14.954207	-0.000000	0.000000	-0.000000	-0.000000	4.639040	0.442540	-0.854560	-0.127197	0.845945	0.522154	-1.000000	-1.000000	-1.000000	-1.000000	-1.000000	-1.000000	-1.000000	16.482759	0.000000	-1.000000	-1.000000	329866.000000	1772914596.335467
6294.285000	93319.830000	-11865.060000	-25614.990000	0.000000	0.000000	0.000000	0.000000	5.531848	1.546339	8.732270	8.063570	-0.000000	0.000000	-0.000000	-0.000000	4.639040	0.442540	-0.854560	-0.127197	0.845945	0.522154	-1.000000	-1.000000	-1.000000	-1.000000	-1.000000	-1.000000	-1.000000	16.482759	0.000000	-1.000000	-1.000000	329867.000000	1772914596.339396
6297.390000	93320.415000	-11863.665000	-25613.595000	0.000000	0.000000	0.000000	0.000000	-8.084941	-17.006880	0.333142	-2.585568	-0.000000	0.000000	-0.000000	-0.000000	4.639040	0.442540	-0.854560	-0.127197	0.845945	0.522154	-1.000000	-1.000000	-1.000000	-1.000000	-1.000000	-1.000000	-1.000000	16.482759	0.000000	-1.000000	-1.000000	329868.000000	1772914596.339399
6319.530000	93333.870000	-11848.095000	-25594.695000	0.000000	0.000000	0.000000	0.000000	-15.673271	-25.250895	-6.700476	-9.659733	-0.000000	0.000000	-0.000000	-0.000000	4.639040	0.442540	-0.854560	-0.127197	0.845945	0.522154	-1.000000	-1.000000	-1.000000	-1.000000	-1.000000	-1.000000	-1.000000	16.482759	0.000000	-1.000000	-1.000000	329869.000000	1772914596.343429
6353.055000	93362.760000	-11823.345000	-25565.715000	0.000000	0.000000	0.000000	0.000000	-11.935952	-18.835440	-7.445021	-8.346521	-0.000000	0.000000	-0.000000	-0.000000	4.639040	0.442540	-0.854560	-0.127197	0.845945	0.522154	-1.000000	-1.000000	-1.000000	-1.000000	-1.000000	-1.000000	-1.000000	16.482759	0.000000	-1.000000	-1.000000	329870.000000	1772914596.343432
6355.080000	93387.870000	-11828.070000	-25567.470000	0.000000	0.000000	0.000000	0.000000	0.821574	-1.516602	-1.772793	0.254643	-0.000000	0.000000	-0.000000	-0.000000	6.149780	0.412020	-1.022420	-0.127502	0.845518	0.523192	-1.000000	-1.000000	-1.000000	-1.000000	-1.000000	-1.000000	-1.000000	16.482759	0.000000	-1.000000	-1.000000	329871.000000	1772914596.347359
6306.930000	93392.820000	-11879.190000	-25618.005000	0.000000	0.000000	0.000000	0.000000	12.596542	16.888631	4.126370	8.282153	-0.000000	0.000000	-0.000000	-0.000000	6.149780	0.412020	-1.022420	-0.127502	0.845518	0.523192	-1.000000	-1.000000	-1.000000	-1.000000	-1.000000	-1.000000	-1.000000	16.482759	0.000000	-1.000000	-1.000000	329872.000000	1772914596.347362
6314.985000	93378.600000	-11865.060000	-25608.105000	0.000000	0.000000	0.000000	0.000000	13.293121	25.611581	3.296435	7.484407	-0.000000	0.000000	-0.000000	-0.000000	6.149780	0.412020	-1.022420	-0.127502	0.845518	0.523192	-1.000000	-1.000000	-1.000000	-1.000000	-1.000000	-1.000000	-1.000000	16.482759	0.000000	-1.000000	-1.000000	329873.000000	1772914596.351403
6323.085000	93360.015000	-11849.805000	-25595.280000	0.000000	0.000000	0.000000	0.000000	3.429129	19.233003	-2.836213	-0.926053	-0.000000	0.000000	-0.000000	-0.000000	6.149780	0.412020	-1.022420	-0.127502	0.845518	0.523192	-1.000000	-1.000000	-1.000000	-1.000000	-1.000000	-1.000000	-1.000000	16.482759	0.000000	-1.000000	-1.000000	329874.000000	1772914596.351405
6307.155000	93338.730000	-11861.190000	-25608.690000	0.000000	0.000000	0.000000	0.000000	-7.456565	1.270661	-6.632688	-8.174040	-0.000000	0.000000	-0.000000	-0.000000	6.149780	0.412020	-1.022420	-0.127502	0.845518	0.523192	-1.000000	-1.000000	-1.000000	-1.000000	-1.000000	-1.000000	-1.000000	16.482759	0.000000	-1.000000	-1.000000	329875.000000	1772914596.357011
6295.680000	93327.570000	-11872.620000	-25621.965000	0.000000	0.000000	0.000000	0.000000	-12.424427	-18.153141	-4.992136	-9.308699	-0.000000	0.000000	-0.000000	-0.000000	6.149780	0.412020	-1.022420	-0.127502	0.845518	0.523192	-1.000000	-1.000000	-1.000000	-1.000000	-1.000000	-1.000000	-1.000000	16.482759	0.000000	-1.000000	-1.000000	329876.000000	1772914596.357014
6310.755000	93337.155000	-11861.505000	-25607.700000	0.000000	0.000000	0.000000	0.000000	-10.768180	-28.387875	-0.758463	-5.761369	-0.000000	0.000000	-0.000000	-0.000000	6.149780	0.412020	-1.022420	-0.127502	0.845518	0.523192	-1.000000	-1.000000	-1.000000	-1.000000	-1.000000	-1.000000	-1.000000	16.482759	0.000000	-1.000000	-1.000000	329877.000000	1772914596.360522
6321.240000	93361.545000	-11857.860000	-25599.555000	0.000000	0.000000	0.000000	0.000000	-3.994178	-23.717752	3.366472	0.109339	-0.000000	0.000000	-0.000000	-0.000000	6.149780	0.412020	-1.022420	-0.127502	0.845518	0.523192	-1.000000	-1.000000	-1.000000	-1.000000	-1.000000	-1.000000	-1.000000	16.482759	0.000000	-1.000000	-1.000000	329878.000000	1772914596.360525
6327.720000	93387.330000	-11859.300000	-25598.115000	0.000000	0.000000	0.000000	0.000000	5.232162	-6.190148	6.335335	6.428652	-0.000000	0.000000	-0.000000	-0.000000	6.149780	0.412020	-1.022420	-0.127502	0.845518	0.523192	-1.000000	-1.000000	-1.000000	-1.000000	-1.000000	-1.000000	-1.000000	16.482759	0.000000	-1.000000	-1.000000	329879.000000	1772914596.363287
6357.780000	93405.600000	-11834.145000	-25568.235000	0.000000	0.000000	0.000000	0.000000	13.040987	15.238005	7.579302	10.975043	-0.000000	0.000000	-0.000000	-0.000000	6.149780	0.412020	-1.022420	-0.127502	0.845518	0.523192	-1.000000	-1.000000	-1.000000	-1.000000	-1.000000	-1.000000	-1.000000	16.482759	0.000000	-1.000000	-1.000000	329880.000000	1772914596.363289
6371.145000	93405.195000	-11817.630000	-25555.185000	0.000000	0.000000	0.000000	0.000000	16.622694	29.351487	7.584578	12.593672	-0.000000	0.000000	-0.000000	-0.000000	7.065380	0.610400	-1.098720	-0.128967	0.847105	0.523619	-1.000000	-1.000000	-1.000000	-1.000000	-1.000000	-1.000000	-1.000000	16.482759	0.000000	-1.000000	-1.000000	329881.000000	1772914596.367506
6330.285000	93384.990000	-11851.830000	-25596.135000	0.000000	0.000000	0.000000	0.000000	14.007306	28.551914	6.202489	10.185114	-0.000000	0.000000	-0.000000	-0.000000	7.065380	0.610400	-1.098720	-0.128967	0.847105	0.523619	-1.000000	-1.000000	-1.000000	-1.000000	-1.000000	-1.000000	-1.000000	16.482759	0.000000	-1.000000	-1.000000	329882.000000	1772914596.367509
6291.990000	93356.955000	-11886.300000	-25634.700000	0.000000	0.000000	0.000000	0.000000	3.097389	12.760447	0.661531	1.250927	-0.000000	0.000000	-0.000000	-0.000000	7.065380	0.610400	-1.098720	-0.128967	0.847105	0.523619	-1.000000	-1.000000	-1.000000	-1.000000	-1.000000	-1.000000	-1.000000	16.482759	0.000000	-1.000000	-1.000000	329883.000000	1772914596.373694
6295.095000	93343.410000	-11878.740000	-25628.715000	0.000000	0.000000	0.000000	0.000000	-13.555677	-10.172527	-9.462488	-12.857469	-0.000000	0.000000	-0.000000	-0.000000	7.065380	0.610400	-1.098720	-0.128967	0.847105	0.523619	-1.000000	-1.000000	-1.000000	-1.000000	-1.000000	-1.000000	-1.000000	16.482759	0.000000	-1.000000	-1.000000	329884.000000	1772914596.373698
6305.580000	93348.180000	-11872.305000	-25618.410000	0.000000	0.000000	0.000000	0.000000	-25.905702	-28.046015	-17.658053	-23.226481	-0.000000	0.000000	-0.000000	-0.000000	7.065380	0.610400	-1.098720	-0.128967	0.847105	0.523619	-1.000000	-1.000000	-1.000000	-1.000000	-1.000000	-1.000000	-1.000000	16.482759	0.000000	-1.000000	-1.000000	329885.000000	1772914596.376591
6318.450000	93367.710000	-11868.570000	-25612.290000	0.000000	0.000000	0.000000	0.000000	-24.392778	-30.997606	-16.560339	-21.109551	-0.000000	0.000000	-0.000000	-0.000000	7.065380	0.610400	-1.098720	-0.128967	0.847105	0.523619	-1.000000	-1.000000	-1.000000	-1.000000	-1.000000	-1.000000	-1.000000	16.482759	0.000000	-1.000000	-1.000000	329886.000000	1772914596.376594
6336.945000	93392.685000	-11857.365000	-25598.970000	0.000000	0.000000	0.000000	0.000000	-9.056234	-17.444472	-5.987362	-6.976263	-0.000000	0.000000	-0.000000	-0.000000	7.065380	0.610400	-1.098720	-0.128967	0.847105	0.523619	-1.000000	-1.000000	-1.000000	-1.000000	-1.000000	-1.000000	-1.000000	16.482759	0.000000	-1.000000	-1.000000	329887.000000	1772914596.379654
6346.845000	93412.395000	-11851.830000	-25590.420000	0.000000	0.000000	0.000000	0.000000	11.123658	5.046258	7.760956	10.736419	-0.000000	0.000000	-0.000000	-0.000000	7.065380	0.610400	-1.098720	-0.128967	0.847105	0.523619	-1.000000	-1.000000	-1.000000	-1.000000	-1.000000	-1.000000	-1.000000	16.482759	0.000000	-1.000000	-1.000000	329888.000000	1772914596.379656
6341.985000	93416.490000	-11856.420000	-25593.840000	0.000000	0.000000	0.000000	0.000000	25.016904	24.318833	17.216482	22.512871	-0.000000	0.000000	-0.000000	-0.000000	7.065380	0.610400	-1.098720	-0.128967	0.847105	0.523619	-1.000000	-1.000000	-1.000000	-1.000000	-1.000000	-1.000000	-1.000000	16.482759	0.000000	-1.000000	-1.000000	329889.000000	1772914596.385235
6335.010000	93403.710000	-11856.960000	-25597.845000	0.000000	0.000000	0.000000	0.000000	25.720778	30.330524	17.935904	22.964847	-0.000000	0.000000	-0.000000	-0.000000	7.065380	0.610400	-1.098720	-0.128967	0.847105	0.523619	-1.000000	-1.000000	-1.000000	-1.000000	-1.000000	-1.000000	-1.000000	16.482759	0.000000	-1.000000	-1.000000	329890.000000	1772914596.385238
6323.535000	93381.255000	-11859.705000	-25606.125000	0.000000	0.000000	0.000000	0.000000	13.925211	20.268269	10.601852	12.979403	-0.000000	0.000000	-0.000000	-0.000000	6.485500	-0.289940	-0.915600	-0.129699	0.846922	0.521361	-1.000000	-1.000000	-1.000000	-1.000000	-1.000000	-1.000000	-1.000000	16.482759	0.000000	-1.000000	-1.000000	329891.000000	1772914596.388218
6314.940000	93357.855000	-11862.855000	-25612.065000	0.000000	0.000000	0.000000	0.000000	-3.305822	-0.318876	-0.099224	-1.559451	-0.000000	0.000000	-0.000000	-0.000000	6.485500	-0.289940	-0.915600	-0.129699	0.846922	0.521361	-1.000000	-1.000000	-1.000000	-1.000000	-1.000000	-1.000000	-1.000000	16.482759	0.000000	-1.000000	-1.000000	329892.000000	1772914596.388222
6314.895000	93343.860000	-11864.340000	-25612.965000	0.000000	0.000000	0.000000	0.000000	-17.116023	-20.741139	-8.892996	-13.481316	-0.000000	0.000000	-0.000000	-0.000000	6.485500	-0.289940	-0.915600	-0.129699	0.846922	0.521361	-1.000000	-1.000000	-1.000000	-1.000000	-1.000000	-1.000000	-1.000000	16.482759	0.000000	-1.000000	-1.000000	329893.000000	1772914596.391490
6326.955000	93353.760000	-11859.795000	-25605.720000	0.000000	0.000000	0.000000	0.000000	-21.280747	-30.612194	-12.482425	-17.796583	-0.000000	0.000000	-0.000000	-0.000000	6.485500	-0.289940	-0.915600	-0.129699	0.846922	0.521361	-1.000000	-1.000000	-1.000000	-1.000000	-1.000000	-1.000000	-1.000000	16.482759	0.000000	-1.000000	-1.000000	329894.000000	1772914596.391493
6345.990000	93375.990000	-11849.580000	-25591.230000	0.000000	0.000000	0.000000	0.000000	-14.593759	-24.730541	-10.208823	-13.437788	-0.000000	0.000000	-0.000000	-0.000000	6.485500	-0.289940	-0.915600	-0.129699	0.846922	0.521361	-1.000000	-1.000000	-1.000000	-1.000000	-1.000000	-1.000000	-1.000000	16.482759	0.000000	-1.000000	-1.000000	329895.000000	1772914596.395476
6361.110000	93399.255000	-11839.770000	-25578.765000	0.000000	0.000000	0.000000	0.000000	-1.055631	-5.811113	-3.743841	-3.242072	-0.000000	0.000000	-0.000000	-0.000000	6.485500	-0.289940	-0.915600	-0.129699	0.846922	0.521361	-1.000000	-1.000000	-1.000000	-1.000000	-1.000000	-1.000000	-1.000000	16.482759	0.000000	-1.000000	-1.000000	329896.000000	1772914596.395479
6363.180000	93408.885000	-11838.420000	-25577.505000	0.000000	0.000000	0.000000	0.000000	12.011582	16.408523	3.528100	7.352280	-0.000000	0.000000	-0.000000	-0.000000	6.485500	-0.289940	-0.915600	-0.129699	0.846922	0.521361	-1.000000	-1.000000	-1.000000	-1.000000	-1.000000	-1.000000	-1.000000	16.482759	0.000000	-1.000000	-1.000000	329897.000000	1772914596.399479
6337.035000	93400.695000	-11859.165000	-25604.280000	0.000000	0.000000	0.000000	0.000000	17.263690	30.147214	7.493836	12.388898	-0.000000	0.000000	-0.000000	-0.000000	6.485500	-0.289940	-0.915600	-0.129699	0.846922	0.521361	-1.000000	-1.000000	-1.000000	-1.000000	-1.000000	-1.000000	-1.000000	16.482759	0.000000	-1.000000	-1.000000	329898.000000	1772914596.399482
6326.010000	93378.960000	-11864.295000	-25612.380000	0.000000	0.000000	0.000000	0.000000	11.409867	28.086121	5.537825	8.645321	-0.000000	0.000000	-0.000000	-0.000000	6.485500	-0.289940	-0.915600	-0.129699	0.846922	0.521361	-1.000000	-1.000000	-1.000000	-1.000000	-1.000000	-1.000000	-1.000000	16.482759	0.000000	-1.000000	-1.000000	329899.000000	1772914596.403427
6335.235000	93360.240000	-11850.255000	-25598.340000	0.000000	0.000000	0.000000	0.000000	-1.456176	11.562281	-0.446618	-0.811216	-0.000000	0.000000	-0.000000	-0.000000	6.485500	-0.289940	-0.915600	-0.129699	0.846922	0.521361	-1.000000	-1.000000	-1.000000	-1.000000	-1.000000	-1.000000	-1.000000	16.482759	0.000000	-1.000000	-1.000000	329900.000000	1772914596.403431
6336.495000	93351.420000	-11845.980000	-25595.640000	0.000000	0.000000	0.000000	0.000000	-12.132957	-10.122305	-4.956925	-8.255364	-0.000000	0.000000	-0.000000	-0.000000	6.363420	0.961380	0.167860	-0.128418	0.847532	0.520934	-1.000000	-1.000000	-1.000000	-1.000000	-1.000000	-1.000000	-1.000000	16.482759	0.000000	-1.000000	-1.000000	329901.000000	1772914596.407482
6330.825000	93359.835000	-11855.340000	-25601.445000	0.000000	0.000000	0.000000	0.000000	-14.272186	-25.087023	-4.725055	-8.782917	-0.000000	0.000000	-0.000000	-0.000000	6.363420	0.961380	0.167860	-0.128418	0.847532	0.520934	-1.000000	-1.000000	-1.000000	-1.000000	-1.000000	-1.000000	-1.000000	16.482759	0.000000	-1.000000	-1.000000	329902.000000	1772914596.407485
6326.235000	93375.810000	-11872.305000	-25610.580000	0.000000	0.000000	0.000000	0.000000	-8.830728	-25.692531	-1.839912	-4.203823	-0.000000	0.000000	-0.000000	-0.000000	6.363420	0.961380	0.167860	-0.128418	0.847532	0.520934	-1.000000	-1.000000	-1.000000	-1.000000	-1.000000	-1.000000	-1.000000	16.482759	0.000000	-1.000000	-1.000000	329903.000000	1772914596.411387
6346.890000	93401.955000	-11860.605000	-25595.370000	0.000000	0.000000	0.000000	0.000000	-0.485358	-12.480465	0.164744	1.042178	-0.000000	0.000000	-0.000000	-0.000000	6.363420	0.961380	0.167860	-0.128418	0.847532	0.520934	-1.000000	-1.000000	-1.000000	-1.000000	-1.000000	-1.000000	-1.000000	16.482759	0.000000	-1.000000	-1.000000	329904.000000	1772914596.411389
6369.030000	93418.965000	-11840.670000	-25575.615000	0.000000	0.000000	0.000000	0.000000	7.507482	6.850118	1.245719	5.079570	-0.000000	0.000000	-0.000000	-0.000000	6.363420	0.961380	0.167860	-0.128418	0.847532	0.520934	-1.000000	-1.000000	-1.000000	-1.000000	-1.000000	-1.000000	-1.000000	16.482759	0.000000	-1.000000	-1.000000	329905.000000	1772914596.415420
6375.690000	93415.860000	-11829.420000	-25565.445000	0.000000	0.000000	0.000000	0.000000	13.436209	21.779096	3.618168	8.250761	-0.000000	0.000000	-0.000000	-0.000000	6.363420	0.961380	0.167860	-0.128418	0.847532	0.520934	-1.000000	-1.000000	-1.000000	-1.000000	-1.000000	-1.000000	-1.000000	16.482759	0.000000	-1.000000	-1.000000	329906.000000	1772914596.415423
6362.460000	93396.105000	-11834.865000	-25574.580000	0.000000	0.000000	0.000000	0.000000	14.703779	24.120885	6.903190	9.592352	-0.000000	0.000000	-0.000000	-0.000000	6.363420	0.961380	0.167860	-0.128418	0.847532	0.520934	-1.000000	-1.000000	-1.000000	-1.000000	-1.000000	-1.000000	-1.000000	16.482759	0.000000	-1.000000	-1.000000	329907.000000	1772914596.419432
6345.000000	93371.445000	-11848.455000	-25596.990000	0.000000	0.000000	0.000000	0.000000	8.808211	12.393239	7.483003	6.451512	-0.000000	0.000000	-0.000000	-0.000000	6.363420	0.961380	0.167860	-0.128418	0.847532	0.520934	-1.000000	-1.000000	-1.000000	-1.000000	-1.000000	-1.000000	-1.000000	16.482759	0.000000	-1.000000	-1.000000	329908.000000	1772914596.419434
6328.170000	93354.480000	-11859.795000	-25611.930000	0.000000	0.000000	0.000000	0.000000	-3.078114	-6.975884	2.782713	-1.999972	-0.000000	0.000000	-0.000000	-0.000000	6.363420	0.961380	0.167860	-0.128418	0.847532	0.520934	-1.000000	-1.000000	-1.000000	-1.000000	-1.000000	-1.000000	-1.000000	16.482759	0.000000	-1.000000	-1.000000	329909.000000	1772914596.423409
6308.910000	93356.235000	-11881.845000	-25629.795000	0.000000	0.000000	0.000000	0.000000	-15.470152	-23.040288	-5.616292	-12.243309	-0.000000	0.000000	-0.000000	-0.000000	6.363420	0.961380	0.167860	-0.128418	0.847532	0.520934	-1.000000	-1.000000	-1.000000	-1.000000	-1.000000	-1.000000	-1.000000	16.482759	0.000000	-1.000000	-1.000000	329910.000000	1772914596.423412
6320.790000	93374.685000	-11880.720000	-25622.055000	0.000000	0.000000	0.000000	0.000000	-21.672755	-26.500790	-13.050150	-18.185776	-0.000000	0.000000	-0.000000	-0.000000	4.013380	-0.473060	-1.815940	-0.128845	0.852110	0.519530	-1.000000	-1.000000	-1.000000	-1.000000	-1.000000	-1.000000	-1.000000	16.482759	0.000000	-1.000000	-1.000000	329911.000000	1772914596.427494
6365.835000	93397.590000	-11846.115000	-25581.240000	0.000000	0.000000	0.000000	0.000000	-16.803808	-15.094128	-14.103302	-14.677596	-0.000000	0.000000	-0.000000	-0.000000	4.013380	-0.473060	-1.815940	-0.128845	0.852110	0.519530	-1.000000	-1.000000	-1.000000	-1.000000	-1.000000	-1.000000	-1.000000	16.482759	0.000000	-1.000000	-1.000000	329912.000000	1772914596.427497
6375.870000	93409.470000	-11839.995000	-25573.950000	0.000000	0.000000	0.000000	0.000000	-1.102665	4.872486	-5.994869	-1.250501	-0.000000	0.000000	-0.000000	-0.000000	4.013380	-0.473060	-1.815940	-0.128845	0.852110	0.519530	-1.000000	-1.000000	-1.000000	-1.000000	-1.000000	-1.000000	-1.000000	16.482759	0.000000	-1.000000	-1.000000	329913.000000	1772914596.431492
6363.630000	93409.470000	-11850.930000	-25588.395000	0.000000	0.000000	0.000000	0.000000	16.965616	22.106856	7.017516	14.768052	-0.000000	0.000000	-0.000000	-0.000000	4.013380	-0.473060	-1.815940	-0.128845	0.852110	0.519530	-1.000000	-1.000000	-1.000000	-1.000000	-1.000000	-1.000000	-1.000000	16.482759	0.000000	-1.000000	-1.000000	329914.000000	1772914596.431495
6369.165000	93394.620000	-11839.680000	-25581.105000	0.000000	0.000000	0.000000	0.000000	25.568279	27.091214	15.995675	22.635516	-0.000000	0.000000	-0.000000	-0.000000	4.013380	-0.473060	-1.815940	-0.128845	0.852110	0.519530	-1.000000	-1.000000	-1.000000	-1.000000	-1.000000	-1.000000	-1.000000	16.482759	0.000000	-1.000000	-1.000000	329915.000000	1772914596.435505
6354.855000	93370.050000	-11845.440000	-25592.130000	0.000000	0.000000	0.000000	0.000000	19.796273	17.416275	15.817727	17.896262	-0.000000	0.000000	-0.000000	-0.000000	4.013380	-0.473060	-1.815940	-0.128845	0.852110	0.519530	-1.000000	-1.000000	-1.000000	-1.000000	-1.000000	-1.000000	-1.000000	16.482759	0.000000	-1.000000	-1.000000	329916.000000	1772914596.435509
6325.245000	93346.560000	-11869.965000	-25618.815000	0.000000	0.000000	0.000000	0.000000	3.923467	-1.464718	7.702177	4.364798	-0.000000	0.000000	-0.000000	-0.000000	4.013380	-0.473060	-1.815940	-0.128845	0.852110	0.519530	-1.000000	-1.000000	-1.000000	-1.000000	-1.000000	-1.000000	-1.000000	16.482759	0.000000	-1.000000	-1.000000	329917.000000	1772914596.439434
6325.920000	93344.895000	-11870.370000	-25615.260000	0.000000	0.000000	0.000000	0.000000	-13.540159	-19.372768	-3.981707	-10.661859	-0.000000	0.000000	-0.000000	-0.000000	4.013380	-0.473060	-1.815940	-0.128845	0.852110	0.519530	-1.000000	-1.000000	-1.000000	-1.000000	-1.000000	-1.000000	-1.000000	16.482759	0.000000	-1.000000	-1.000000	329918.000000	1772914596.439437
6336.270000	93359.295000	-11866.815000	-25606.125000	0.000000	0.000000	0.000000	0.000000	-23.578692	-26.473053	-13.290220	-19.504910	-0.000000	0.000000	-0.000000	-0.000000	4.013380	-0.473060	-1.815940	-0.128845	0.852110	0.519530	-1.000000	-1.000000	-1.000000	-1.000000	-1.000000	-1.000000	-1.000000	16.482759	0.000000	-1.000000	-1.000000	329919.000000	1772914596.443357
6353.910000	93381.615000	-11857.590000	-25593.300000	0.000000	0.000000	0.000000	0.000000	-20.625117	-18.645585	-15.032505	-17.404490	-0.000000	0.000000	-0.000000	-0.000000	4.013380	-0.473060	-1.815940	-0.128845	0.852110	0.519530	-1.000000	-1.000000	-1.000000	-1.000000	-1.000000	-1.000000	-1.000000	16.482759	0.000000	-1.000000	-1.000000	329920.000000	1772914596.443359
6367.815000	93403.890000	-11849.490000	-25582.995000	0.000000	0.000000	0.000000	0.000000	-6.550039	-0.140687	-8.528576	-6.059582	-0.000000	0.000000	-0.000000	-0.000000	1.449700	-0.427280	-0.564620	-0.128173	0.851865	0.517821	-1.000000	-1.000000	-1.000000	-1.000000	-1.000000	-1.000000	-1.000000	16.482759	0.000000	-1.000000	-1.000000	329921.000000	1772914596.447601
6371.595000	93417.210000	-11846.250000	-25580.835000	0.000000	0.000000	0.000000	0.000000	10.270471	18.928932	1.920515	7.454816	-0.000000	0.000000	-0.000000	-0.000000	1.449700	-0.427280	-0.564620	-0.128173	0.851865	0.517821	-1.000000	-1.000000	-1.000000	-1.000000	-1.000000	-1.000000	-1.000000	16.482759	0.000000	-1.000000	-1.000000	329922.000000	1772914596.447603
6369.345000	93404.160000	-11842.965000	-25580.970000	0.000000	0.000000	0.000000	0.000000	20.421004	28.240289	10.258296	15.567668	-0.000000	0.000000	-0.000000	-0.000000	1.449700	-0.427280	-0.564620	-0.128173	0.851865	0.517821	-1.000000	-1.000000	-1.000000	-1.000000	-1.000000	-1.000000	-1.000000	16.482759	0.000000	-1.000000	-1.000000	329923.000000	1772914596.451533
6361.245000	93381.840000	-11842.425000	-25585.650000	0.000000	0.000000	0.000000	0.000000	19.084553	22.448222	12.539581	14.697671	-0.000000	0.000000	-0.000000	-0.000000	1.449700	-0.427280	-0.564620	-0.128173	0.851865	0.517821	-1.000000	-1.000000	-1.000000	-1.000000	-1.000000	-1.000000	-1.000000	16.482759	0.000000	-1.000000	-1.000000	329924.000000	1772914596.451536
6348.195000	93361.635000	-11850.480000	-25595.190000	0.000000	0.000000	0.000000	0.000000	8.094983	4.218006	8.549024	6.471424	-0.000000	0.000000	-0.000000	-0.000000	1.449700	-0.427280	-0.564620	-0.128173	0.851865	0.517821	-1.000000	-1.000000	-1.000000	-1.000000	-1.000000	-1.000000	-1.000000	16.482759	0.000000	-1.000000	-1.000000	329925.000000	1772914596.455373
6337.620000	93352.995000	-11859.975000	-25607.880000	0.000000	0.000000	0.000000	0.000000	-6.186388	-16.693388	0.774803	-4.357334	-0.000000	0.000000	-0.000000	-0.000000	1.449700	-0.427280	-0.564620	-0.128173	0.851865	0.517821	-1.000000	-1.000000	-1.000000	-1.000000	-1.000000	-1.000000	-1.000000	16.482759	0.000000	-1.000000	-1.000000	329926.000000	1772914596.455376
6341.400000	93359.835000	-11862.090000	-25606.395000	0.000000	0.000000	0.000000	0.000000	-16.518083	-28.907466	-7.083879	-12.607035	-0.000000	0.000000	-0.000000	-0.000000	1.449700	-0.427280	-0.564620	-0.128173	0.851865	0.517821	-1.000000	-1.000000	-1.000000	-1.000000	-1.000000	-1.000000	-1.000000	16.482759	0.000000	-1.000000	-1.000000	329927.000000	1772914596.459366
6352.290000	93380.535000	-11859.840000	-25597.755000	0.000000	0.000000	0.000000	0.000000	-17.931617	-25.940759	-11.324910	-14.411654	-0.000000	0.000000	-0.000000	-0.000000	1.449700	-0.427280	-0.564620	-0.128173	0.851865	0.517821	-1.000000	-1.000000	-1.000000	-1.000000	-1.000000	-1.000000	-1.000000	16.482759	0.000000	-1.000000	-1.000000	329928.000000	1772914596.459370
6367.095000	93403.800000	-11852.820000	-25587.045000	0.000000	0.000000	0.000000	0.000000	-10.002309	-9.550717	-9.891949	-8.814705	-0.000000	0.000000	-0.000000	-0.000000	1.449700	-0.427280	-0.564620	-0.128173	0.851865	0.517821	-1.000000	-1.000000	-1.000000	-1.000000	-1.000000	-1.000000	-1.000000	16.482759	0.000000	-1.000000	-1.000000	329929.000000	1772914596.463362
6379.380000	93422.340000	-11843.820000	-25577.190000	0.000000	0.000000	0.000000	0.000000	2.865487	11.560654	-3.593852	1.295184	-0.000000	0.000000	-0.000000	-0.000000	1.449700	-0.427280	-0.564620	-0.128173	0.851865	0.517821	-1.000000	-1.000000	-1.000000	-1.000000	-1.000000	-1.000000	-1.000000	16.482759	0.000000	-1.000000	-1.000000	329930.000000	1772914596.463366
6379.470000	93419.955000	-11839.545000	-25574.895000	0.000000	0.000000	0.000000	0.000000	13.791303	26.451214	4.299672	10.570326	-0.000000	0.000000	-0.000000	-0.000000	1.144500	-0.152600	-1.388660	-0.128418	0.852659	0.520751	-1.000000	-1.000000	-1.000000	-1.000000	-1.000000	-1.000000	-1.000000	16.482759	0.000000	-1.000000	-1.000000	329931.000000	1772914596.467511
6368.130000	93400.605000	-11842.695000	-25581.825000	0.000000	0.000000	0.000000	0.000000	16.967487	27.365692	9.701594	14.145476	-0.000000	0.000000	-0.000000	-0.000000	1.144500	-0.152600	-1.388660	-0.128418	0.852659	0.520751	-1.000000	-1.000000	-1.000000	-1.000000	-1.000000	-1.000000	-1.000000	16.482759	0.000000	-1.000000	-1.000000	329932.000000	1772914596.467514
6354.225000	93373.920000	-11850.300000	-25595.640000	0.000000	0.000000	0.000000	0.000000	10.711560	13.623346	9.784966	10.133805	-0.000000	0.000000	-0.000000	-0.000000	1.144500	-0.152600	-1.388660	-0.128418	0.852659	0.520751	-1.000000	-1.000000	-1.000000	-1.000000	-1.000000	-1.000000	-1.000000	16.482759	0.000000	-1.000000	-1.000000	329933.000000	1772914596.476057
6339.555000	93356.460000	-11863.305000	-25610.940000	0.000000	0.000000	0.000000	0.000000	-1.504910	-7.690280	4.519480	0.544602	-0.000000	0.000000	-0.000000	-0.000000	1.144500	-0.152600	-1.388660	-0.128418	0.852659	0.520751	-1.000000	-1.000000	-1.000000	-1.000000	-1.000000	-1.000000	-1.000000	16.482759	0.000000	-1.000000	-1.000000	329934.000000	1772914596.476059
6341.625000	93357.855000	-11863.530000	-25606.215000	0.000000	0.000000	0.000000	0.000000	-12.897819	-25.125909	-3.172009	-9.473502	0.000000	0.000000	-0.000000	-0.000000	1.144500	-0.152600	-1.388660	-0.128418	0.852659	0.520751	-1.000000	-1.000000	-1.000000	-1.000000	-1.000000	-1.000000	-1.000000	16.482759	0.000000	-1.000000	-1.000000	329935.000000	1772914596.479056
6355.440000	93375.405000	-11857.230000	-25597.305000	0.000000	0.000000	0.000000	0.000000	-16.943586	-29.046989	-8.725316	-14.009593	0.000000	0.000000	-0.000000	-0.000000	1.144500	-0.152600	-1.388660	-0.128418	0.852659	0.520751	-1.000000	-1.000000	-1.000000	-1.000000	-1.000000	-1.000000	-1.000000	16.482759	0.000000	-1.000000	-1.000000	329936.000000	1772914596.479058
6370.245000	93398.670000	-11850.975000	-25588.575000	0.000000	0.000000	0.000000	0.000000	-11.105769	-17.186607	-8.712268	-10.211992	0.000000	0.000000	-0.000000	-0.000000	1.144500	-0.152600	-1.388660	-0.128418	0.852659	0.520751	-1.000000	-1.000000	-1.000000	-1.000000	-1.000000	-1.000000	-1.000000	16.482759	0.000000	-1.000000	-1.000000	329937.000000	1772914596.482255
6379.470000	93421.215000	-11846.655000	-25584.840000	0.000000	0.000000	0.000000	0.000000	1.238614	4.023193	-3.420813	-0.652853	0.000000	0.000000	-0.000000	-0.000000	1.144500	-0.152600	-1.388660	-0.128418	0.852659	0.520751	-1.000000	-1.000000	-1.000000	-1.000000	-1.000000	-1.000000	-1.000000	16.482759	0.000000	-1.000000	-1.000000	329938.000000	1772914596.482258
6380.505000	93425.625000	-11845.665000	-25586.820000	0.000000	0.000000	0.000000	0.000000	12.751645	23.204072	3.476657	8.581417	0.000000	0.000000	-0.000000	-0.000000	1.144500	-0.152600	-1.388660	-0.128418	0.852659	0.520751	-1.000000	-1.000000	-1.000000	-1.000000	-1.000000	-1.000000	-1.000000	16.482759	0.000000	-1.000000	-1.000000	329939.000000	1772914596.483430
6383.205000	93409.740000	-11834.865000	-25575.345000	0.000000	0.000000	0.000000	0.000000	17.025972	30.112103	7.995394	12.512564	0.000000	0.000000	-0.000000	-0.000000	1.144500	-0.152600	-1.388660	-0.128418	0.852659	0.520751	-1.000000	-1.000000	-1.000000	-1.000000	-1.000000	-1.000000	-1.000000	16.482759	0.000000	-1.000000	-1.000000	329940.000000	1772914596.483433
6375.510000	93382.830000	-11836.710000	-25579.845000	0.000000	0.000000	0.000000	0.000000	12.424506	20.871599	8.425410	10.280491	0.000000	0.000000	-0.000000	-0.000000	0.686700	-1.007160	-1.159760	-0.128906	0.851743	0.521239	-1.000000	-1.000000	-1.000000	-1.000000	-1.000000	-1.000000	-1.000000	16.482759	0.000000	-1.000000	-1.000000	329941.000000	1772914596.487408
6374.205000	93360.600000	-11833.020000	-25581.600000	0.000000	0.000000	0.000000	0.000000	2.155456	0.226706	5.303217	4.085930	0.000000	0.000000	-0.000000	-0.000000	0.686700	-1.007160	-1.159760	-0.128906	0.851743	0.521239	-1.000000	-1.000000	-1.000000	-1.000000	-1.000000	-1.000000	-1.000000	16.482759	0.000000	-1.000000	-1.000000	329942.000000	1772914596.487410
6361.470000	93349.440000	-11848.140000	-25590.690000	0.000000	0.000000	0.000000	0.000000	-8.421436	-20.781753	0.105392	-3.178994	0.000000	0.000000	-0.000000	-0.000000	0.686700	-1.007160	-1.159760	-0.128906	0.851743	0.521239	-1.000000	-1.000000	-1.000000	-1.000000	-1.000000	-1.000000	-1.000000	16.482759	0.000000	-1.000000	-1.000000	329943.000000	1772914596.493546
6354.990000	93361.275000	-11864.880000	-25601.085000	0.000000	0.000000	0.000000	0.000000	-14.908394	-30.835467	-5.738088	-9.032125	0.000000	0.000000	-0.000000	-0.000000	0.686700	-1.007160	-1.159760	-0.128906	0.851743	0.521239	-1.000000	-1.000000	-1.000000	-1.000000	-1.000000	-1.000000	-1.000000	16.482759	0.000000	-1.000000	-1.000000	329944.000000	1772914596.493549
6355.485000	93384.630000	-11872.620000	-25605.090000	0.000000	0.000000	0.000000	0.000000	-15.325886	-24.427349	-10.669069	-11.756048	0.000000	0.000000	-0.000000	-0.000000	0.686700	-1.007160	-1.159760	-0.128906	0.851743	0.521239	-1.000000	-1.000000	-1.000000	-1.000000	-1.000000	-1.000000	-1.000000	16.482759	0.000000	-1.000000	-1.000000	329945.000000	1772914596.500257
6371.685000	93409.605000	-11861.595000	-25593.165000	0.000000	0.000000	0.000000	0.000000	-9.688558	-4.806450	-12.141792	-10.212711	0.000000	0.000000	-0.000000	-0.000000	0.686700	-1.007160	-1.159760	-0.128906	0.851743	0.521239	-1.000000	-1.000000	-1.000000	-1.000000	-1.000000	-1.000000	-1.000000	16.482759	0.000000	-1.000000	-1.000000	329946.000000	1772914596.500260
6398.955000	93421.305000	-11833.650000	-25567.245000	0.000000	0.000000	0.000000	0.000000	0.515168	17.651637	-7.497646	-3.865561	0.000000	0.000000	-0.000000	-0.000000	0.686700	-1.007160	-1.159760	-0.128906	0.851743	0.521239	-1.000000	-1.000000	-1.000000	-1.000000	-1.000000	-1.000000	-1.000000	16.482759	0.000000	-1.000000	-1.000000	329947.000000	1772914596.500264
6415.155000	93411.630000	-11812.635000	-25549.290000	0.000000	0.000000	0.000000	0.000000	12.007819	30.927174	3.138655	5.961991	0.000000	0.000000	-0.000000	-0.000000	0.686700	-1.007160	-1.159760	-0.128906	0.851743	0.521239	-1.000000	-1.000000	-1.000000	-1.000000	-1.000000	-1.000000	-1.000000	16.482759	0.000000	-1.000000	-1.000000	329948.000000	1772914596.500266
6373.620000	93383.820000	-11848.230000	-25586.505000	0.000000	0.000000	0.000000	0.000000	18.864071	27.712204	14.162178	14.187804	0.000000	0.000000	-0.000000	-0.000000	0.686700	-1.007160	-1.159760	-0.128906	0.851743	0.521239	-1.000000	-1.000000	-1.000000	-1.000000	-1.000000	-1.000000	-1.000000	16.482759	0.000000	-1.000000	-1.000000	329949.000000	1772914596.503458
6340.185000	93360.870000	-11876.940000	-25617.780000	0.000000	0.000000	0.000000	0.000000	14.611925	9.520443	16.605753	13.585981	0.000000	0.000000	-0.000000	-0.000000	0.686700	-1.007160	-1.159760	-0.128906	0.851743	0.521239	-1.000000	-1.000000	-1.000000	-1.000000	-1.000000	-1.000000	-1.000000	16.482759	0.000000	-1.000000	-1.000000	329950.000000	1772914596.503461
6349.635000	93350.835000	-11866.230000	-25607.250000	0.000000	0.000000	0.000000	0.000000	-0.245170	-13.667228	7.282430	2.673704	0.000000	0.000000	-0.000000	-0.000000	3.570840	0.000000	-0.946120	-0.129028	0.845152	0.522154	-1.000000	-1.000000	-1.000000	-1.000000	-1.000000	-1.000000	-1.000000	16.482759	0.000000	-1.000000	-1.000000	329951.000000	1772914596.507435
6361.110000	93358.530000	-11859.030000	-25597.530000	0.000000	0.000000	0.000000	0.000000	-15.132838	-28.921750	-6.073256	-10.049669	0.000000	0.000000	-0.000000	-0.000000	3.570840	0.000000	-0.946120	-0.129028	0.845152	0.522154	-1.000000	-1.000000	-1.000000	-1.000000	-1.000000	-1.000000	-1.000000	16.482759	0.000000	-1.000000	-1.000000	329952.000000	1772914596.507438
6376.275000	93375.720000	-11852.415000	-25586.550000	0.000000	0.000000	0.000000	0.000000	-18.758332	-28.060475	-12.871447	-14.295917	0.000000	0.000000	-0.000000	-0.000000	3.570840	0.000000	-0.946120	-0.129028	0.845152	0.522154	-1.000000	-1.000000	-1.000000	-1.000000	-1.000000	-1.000000	-1.000000	16.482759	0.000000	-1.000000	-1.000000	329953.000000	1772914596.511531
6387.030000	93400.065000	-11849.715000	-25579.215000	0.000000	0.000000	0.000000	0.000000	-9.394313	-12.177038	-9.774679	-7.837648	0.000000	0.000000	-0.000000	-0.000000	3.570840	0.000000	-0.946120	-0.129028	0.845152	0.522154	-1.000000	-1.000000	-1.000000	-1.000000	-1.000000	-1.000000	-1.000000	16.482759	0.000000	-1.000000	-1.000000	329954.000000	1772914596.511534
6394.680000	93416.355000	-11845.080000	-25573.905000	0.000000	0.000000	0.000000	0.000000	5.427706	9.690017	-1.148204	3.447484	0.000000	0.000000	-0.000000	-0.000000	3.570840	0.000000	-0.946120	-0.129028	0.845152	0.522154	-1.000000	-1.000000	-1.000000	-1.000000	-1.000000	-1.000000	-1.000000	16.482759	0.000000	-1.000000	-1.000000	329955.000000	1772914596.515456
6398.685000	93412.800000	-11837.745000	-25568.865000	0.000000	0.000000	0.000000	0.000000	16.098232	25.834972	6.647170	11.851047	0.000000	0.000000	-0.000000	-0.000000	3.570840	0.000000	-0.946120	-0.129028	0.845152	0.522154	-1.000000	-1.000000	-1.000000	-1.000000	-1.000000	-1.000000	-1.000000	16.482759	0.000000	-1.000000	-1.000000	329956.000000	1772914596.515458
6393.195000	93393.945000	-11835.675000	-25571.295000	0.000000	0.000000	0.000000	0.000000	17.144980	27.803897	9.774752	13.051647	0.000000	0.000000	-0.000000	-0.000000	3.570840	0.000000	-0.946120	-0.129028	0.845152	0.522154	-1.000000	-1.000000	-1.000000	-1.000000	-1.000000	-1.000000	-1.000000	16.482759	0.000000	-1.000000	-1.000000	329957.000000	1772914596.519479
6378.750000	93370.095000	-11842.965000	-25584.885000	0.000000	0.000000	0.000000	0.000000	8.940611	14.694561	7.623827	7.210091	0.000000	0.000000	-0.000000	-0.000000	3.570840	0.000000	-0.946120	-0.129028	0.845152	0.522154	-1.000000	-1.000000	-1.000000	-1.000000	-1.000000	-1.000000	-1.000000	16.482759	0.000000	-1.000000	-1.000000	329958.000000	1772914596.519482
6363.945000	93352.005000	-11853.990000	-25595.370000	0.000000	0.000000	0.000000	0.000000	-3.952538	-6.285382	1.577984	-2.511215	0.000000	0.000000	-0.000000	-0.000000	3.570840	0.000000	-0.946120	-0.129028	0.845152	0.522154	-1.000000	-1.000000	-1.000000	-1.000000	-1.000000	-1.000000	-1.000000	16.482759	0.000000	-1.000000	-1.000000	329959.000000	1772914596.523448
6365.295000	93353.760000	-11855.475000	-25596.585000	0.000000	0.000000	0.000000	0.000000	-15.122037	-23.710072	-5.615228	-11.388748	0.000000	0.000000	-0.000000	-0.000000	3.570840	0.000000	-0.946120	-0.129028	0.845152	0.522154	-1.000000	-1.000000	-1.000000	-1.000000	-1.000000	-1.000000	-1.000000	16.482759	0.000000	-1.000000	-1.000000	329960.000000	1772914596.523451
6373.620000	93371.940000	-11855.205000	-25592.220000	0.000000	0.000000	0.000000	0.000000	-18.799761	-28.075688	-10.365331	-14.841788	0.000000	0.000000	-0.000000	-0.000000	5.707240	0.335720	-0.808780	-0.128112	0.845518	0.523070	-1.000000	-1.000000	-1.000000	-1.000000	-1.000000	-1.000000	-1.000000	16.482759	0.000000	-1.000000	-1.000000	329961.000000	1772914596.529048
6385.860000	93400.920000	-11853.180000	-25586.415000	0.000000	0.000000	0.000000	0.000000	-12.889840	-16.909229	-10.118011	-10.981821	0.000000	0.000000	-0.000000	-0.000000	5.707240	0.335720	-0.808780	-0.128112	0.845518	0.523070	-1.000000	-1.000000	-1.000000	-1.000000	-1.000000	-1.000000	-1.000000	16.482759	0.000000	-1.000000	-1.000000	329962.000000	1772914596.529052
6399.585000	93418.065000	-11844.990000	-25575.030000	0.000000	0.000000	0.000000	0.000000	-0.498825	3.730380	-5.069576	-1.864630	0.000000	0.000000	-0.000000	-0.000000	5.707240	0.335720	-0.808780	-0.128112	0.845518	0.523070	-1.000000	-1.000000	-1.000000	-1.000000	-1.000000	-1.000000	-1.000000	16.482759	0.000000	-1.000000	-1.000000	329963.000000	1772914596.531395
6402.780000	93421.845000	-11840.580000	-25574.580000	0.000000	0.000000	0.000000	0.000000	11.849526	22.383176	2.192841	7.838097	0.000000	0.000000	-0.000000	-0.000000	5.707240	0.335720	-0.808780	-0.128112	0.845518	0.523070	-1.000000	-1.000000	-1.000000	-1.000000	-1.000000	-1.000000	-1.000000	16.482759	0.000000	-1.000000	-1.000000	329964.000000	1772914596.531398
6398.730000	93408.480000	-11837.700000	-25576.470000	0.000000	0.000000	0.000000	0.000000	17.825069	28.660565	8.208368	13.315968	0.000000	0.000000	-0.000000	-0.000000	5.707240	0.335720	-0.808780	-0.128112	0.845518	0.523070	-1.000000	-1.000000	-1.000000	-1.000000	-1.000000	-1.000000	-1.000000	16.482759	0.000000	-1.000000	-1.000000	329965.000000	1772914596.535549
6381.495000	93385.710000	-11846.385000	-25588.395000	0.000000	0.000000	0.000000	0.000000	14.462196	19.184638	10.131862	11.968517	0.000000	0.000000	-0.000000	-0.000000	5.707240	0.335720	-0.808780	-0.128112	0.845518	0.523070	-1.000000	-1.000000	-1.000000	-1.000000	-1.000000	-1.000000	-1.000000	16.482759	0.000000	-1.000000	-1.000000	329966.000000	1772914596.535562
6381.765000	93365.595000	-11840.490000	-25582.815000	0.000000	0.000000	0.000000	0.000000	3.809941	-0.766640	7.220673	4.973603	0.000000	0.000000	-0.000000	-0.000000	5.707240	0.335720	-0.808780	-0.128112	0.845518	0.523070	-1.000000	-1.000000	-1.000000	-1.000000	-1.000000	-1.000000	-1.000000	16.482759	0.000000	-1.000000	-1.000000	329967.000000	1772914596.539697
6386.085000	93359.700000	-11838.555000	-25582.995000	0.000000	0.000000	0.000000	0.000000	-7.778684	-20.388351	1.618059	-3.202011	0.000000	0.000000	-0.000000	-0.000000	5.707240	0.335720	-0.808780	-0.128112	0.845518	0.523070	-1.000000	-1.000000	-1.000000	-1.000000	-1.000000	-1.000000	-1.000000	16.482759	0.000000	-1.000000	-1.000000	329968.000000	1772914596.539702
6360.750000	93370.590000	-11869.740000	-25608.330000	0.000000	0.000000	0.000000	0.000000	-14.173309	-29.190571	-3.847472	-8.499327	0.000000	0.000000	-0.000000	-0.000000	5.707240	0.335720	-0.808780	-0.128112	0.845518	0.523070	-1.000000	-1.000000	-1.000000	-1.000000	-1.000000	-1.000000	-1.000000	16.482759	0.000000	-1.000000	-1.000000	329969.000000	1772914596.544532
6359.580000	93393.270000	-11882.205000	-25613.775000	0.000000	0.000000	0.000000	0.000000	-13.999416	-22.539412	-8.329029	-10.263436	0.000000	0.000000	-0.000000	-0.000000	5.707240	0.335720	-0.808780	-0.128112	0.845518	0.523070	-1.000000	-1.000000	-1.000000	-1.000000	-1.000000	-1.000000	-1.000000	16.482759	0.000000	-1.000000	-1.000000	329970.000000	1772914596.544537
6403.500000	93415.860000	-11846.970000	-25579.980000	0.000000	0.000000	0.000000	0.000000	-8.390454	-4.027008	-10.490464	-8.581770	0.000000	0.000000	-0.000000	-0.000000	6.500760	0.503580	-1.175020	-0.127319	0.845152	0.523192	-1.000000	-1.000000	-1.000000	-1.000000	-1.000000	-1.000000	-1.000000	16.482759	0.000000	-1.000000	-1.000000	329971.000000	1772914596.547427
6397.335000	93424.005000	-11852.190000	-25587.135000	0.000000	0.000000	0.000000	0.000000	1.685230	16.475308	-7.142876	-2.546295	0.000000	0.000000	-0.000000	-0.000000	6.500760	0.503580	-1.175020	-0.127319	0.845152	0.523192	-1.000000	-1.000000	-1.000000	-1.000000	-1.000000	-1.000000	-1.000000	16.482759	0.000000	-1.000000	-1.000000	329972.000000	1772914596.547430
6381.315000	93413.385000	-11863.620000	-25600.905000	0.000000	0.000000	0.000000	0.000000	11.813693	27.987016	1.043310	5.484270	0.000000	0.000000	-0.000000	-0.000000	6.500760	0.503580	-1.175020	-0.127319	0.845152	0.523192	-1.000000	-1.000000	-1.000000	-1.000000	-1.000000	-1.000000	-1.000000	16.482759	0.000000	-1.000000	-1.000000	329973.000000	1772914596.551588
6398.055000	93393.045000	-11840.265000	-25578.225000	0.000000	0.000000	0.000000	0.000000	15.358652	24.340970	8.543269	10.278355	0.000000	0.000000	-0.000000	-0.000000	6.500760	0.503580	-1.175020	-0.127319	0.845152	0.523192	-1.000000	-1.000000	-1.000000	-1.000000	-1.000000	-1.000000	-1.000000	16.482759	0.000000	-1.000000	-1.000000	329974.000000	1772914596.551591
6382.845000	93369.330000	-11849.130000	-25591.590000	0.000000	0.000000	0.000000	0.000000	10.749025	7.665728	11.512322	9.802493	0.000000	0.000000	-0.000000	-0.000000	6.500760	0.503580	-1.175020	-0.127319	0.845152	0.523192	-1.000000	-1.000000	-1.000000	-1.000000	-1.000000	-1.000000	-1.000000	16.482759	0.000000	-1.000000	-1.000000	329975.000000	1772914596.555533
6362.595000	93359.520000	-11866.500000	-25613.370000	0.000000	0.000000	0.000000	0.000000	1.428268	-12.833331	9.259518	5.108889	0.000000	0.000000	-0.000000	-0.000000	6.500760	0.503580	-1.175020	-0.127319	0.845152	0.523192	-1.000000	-1.000000	-1.000000	-1.000000	-1.000000	-1.000000	-1.000000	16.482759	0.000000	-1.000000	-1.000000	329976.000000	1772914596.555538
6368.130000	93368.205000	-11864.700000	-25607.745000	0.000000	0.000000	0.000000	0.000000	-8.189819	-25.941400	2.591645	-2.086997	0.000000	0.000000	-0.000000	-0.000000	6.500760	0.503580	-1.175020	-0.127319	0.845152	0.523192	-1.000000	-1.000000	-1.000000	-1.000000	-1.000000	-1.000000	-1.000000	16.482759	0.000000	-1.000000	-1.000000	329977.000000	1772914596.559478
6412.545000	93393.225000	-11829.915000	-25560.900000	0.000000	0.000000	0.000000	0.000000	-12.679503	-24.440658	-4.481259	-7.363813	0.000000	0.000000	-0.000000	-0.000000	6.500760	0.503580	-1.175020	-0.127319	0.845152	0.523192	-1.000000	-1.000000	-1.000000	-1.000000	-1.000000	-1.000000	-1.000000	16.482759	0.000000	-1.000000	-1.000000	329978.000000	1772914596.559481
6429.240000	93418.695000	-11823.345000	-25550.640000	0.000000	0.000000	0.000000	0.000000	-7.770178	-9.099772	-6.402397	-5.479583	0.000000	0.000000	-0.000000	-0.000000	6.500760	0.503580	-1.175020	-0.127319	0.845152	0.523192	-1.000000	-1.000000	-1.000000	-1.000000	-1.000000	-1.000000	-1.000000	16.482759	0.000000	-1.000000	-1.000000	329979.000000	1772914596.563448
6422.220000	93432.960000	-11831.175000	-25558.965000	0.000000	0.000000	0.000000	0.000000	3.587071	11.554765	-2.625929	2.233719	0.000000	0.000000	-0.000000	-0.000000	6.500760	0.503580	-1.175020	-0.127319	0.845152	0.523192	-1.000000	-1.000000	-1.000000	-1.000000	-1.000000	-1.000000	-1.000000	16.482759	0.000000	-1.000000	-1.000000	329980.000000	1772914596.563451
6403.275000	93429.405000	-11846.970000	-25578.810000	0.000000	0.000000	0.000000	0.000000	11.700146	25.917178	1.282283	7.556942	0.000000	0.000000	-0.000000	-0.000000	5.798800	0.625660	-0.946120	-0.127624	0.846372	0.521239	-1.000000	-1.000000	-1.000000	-1.000000	-1.000000	-1.000000	-1.000000	16.482759	0.000000	-1.000000	-1.000000	329981.000000	1772914596.567593
6392.385000	93413.340000	-11851.470000	-25589.610000	0.000000	0.000000	0.000000	0.000000	9.364866	25.929284	0.449116	4.381903	0.000000	0.000000	-0.000000	-0.000000	5.798800	0.625660	-0.946120	-0.127624	0.846372	0.521239	-1.000000	-1.000000	-1.000000	-1.000000	-1.000000	-1.000000	-1.000000	16.482759	0.000000	-1.000000	-1.000000	329982.000000	1772914596.567596
6373.440000	93385.080000	-11864.565000	-25603.425000	0.000000	0.000000	0.000000	0.000000	-1.684176	11.507648	-4.394002	-5.279481	0.000000	0.000000	-0.000000	-0.000000	5.798800	0.625660	-0.946120	-0.127624	0.846372	0.521239	-1.000000	-1.000000	-1.000000	-1.000000	-1.000000	-1.000000	-1.000000	16.482759	0.000000	-1.000000	-1.000000	329983.000000	1772914596.571466
6363.630000	93366.990000	-11871.045000	-25611.930000	0.000000	0.000000	0.000000	0.000000	-13.581500	-9.732726	-8.963357	-14.249479	0.000000	0.000000	-0.000000	-0.000000	5.798800	0.625660	-0.946120	-0.127624	0.846372	0.521239	-1.000000	-1.000000	-1.000000	-1.000000	-1.000000	-1.000000	-1.000000	16.482759	0.000000	-1.000000	-1.000000	329984.000000	1772914596.571469
6380.910000	93367.080000	-11856.150000	-25595.595000	0.000000	0.000000	0.000000	0.000000	-18.445259	-26.509327	-9.305620	-16.116151	0.000000	0.000000	-0.000000	-0.000000	5.798800	0.625660	-0.946120	-0.127624	0.846372	0.521239	-1.000000	-1.000000	-1.000000	-1.000000	-1.000000	-1.000000	-1.000000	16.482759	0.000000	-1.000000	-1.000000	329985.000000	1772914596.575459
6388.515000	93385.710000	-11857.365000	-25591.320000	0.000000	0.000000	0.000000	0.000000	-12.593218	-29.587600	-3.984563	-8.824666	0.000000	0.000000	-0.000000	-0.000000	5.798800	0.625660	-0.946120	-0.127624	0.846372	0.521239	-1.000000	-1.000000	-1.000000	-1.000000	-1.000000	-1.000000	-1.000000	16.482759	0.000000	-1.000000	-1.000000	329986.000000	1772914596.575462
6398.730000	93410.370000	-11856.645000	-25587.945000	0.000000	0.000000	0.000000	0.000000	1.109932	-16.892943	4.524170	3.972614	0.000000	0.000000	-0.000000	-0.000000	5.798800	0.625660	-0.946120	-0.127624	0.846372	0.521239	-1.000000	-1.000000	-1.000000	-1.000000	-1.000000	-1.000000	-1.000000	16.482759	0.000000	-1.000000	-1.000000	329987.000000	1772914596.579423
6422.130000	93430.575000	-11836.755000	-25567.245000	0.000000	0.000000	0.000000	0.000000	15.211874	5.023018	11.612746	15.406790	0.000000	0.000000	-0.000000	-0.000000	5.798800	0.625660	-0.946120	-0.127624	0.846372	0.521239	-1.000000	-1.000000	-1.000000	-1.000000	-1.000000	-1.000000	-1.000000	16.482759	0.000000	-1.000000	-1.000000	329988.000000	1772914596.579426
6441.210000	93433.860000	-11815.605000	-25547.940000	0.000000	0.000000	0.000000	0.000000	23.257696	24.490284	14.765460	20.737585	0.000000	0.000000	-0.000000	-0.000000	5.798800	0.625660	-0.946120	-0.127624	0.846372	0.521239	-1.000000	-1.000000	-1.000000	-1.000000	-1.000000	-1.000000	-1.000000	16.482759	0.000000	-1.000000	-1.000000	329989.000000	1772914596.585386
6433.785000	93422.025000	-11818.215000	-25554.195000	0.000000	0.000000	0.000000	0.000000	22.339586	31.162959	13.836753	18.852885	0.000000	0.000000	-0.000000	-0.000000	5.798800	0.625660	-0.946120	-0.127624	0.846372	0.521239	-1.000000	-1.000000	-1.000000	-1.000000	-1.000000	-1.000000	-1.000000	16.482759	0.000000	-1.000000	-1.000000	329990.000000	1772914596.585389
6394.185000	93398.310000	-11850.255000	-25587.990000	0.000000	0.000000	0.000000	0.000000	11.843097	21.616240	8.105613	9.790939	0.000000	0.000000	-0.000000	-0.000000	4.562740	-0.076300	-1.159760	-0.129028	0.850950	0.520201	-1.000000	-1.000000	-1.000000	-1.000000	-1.000000	-1.000000	-1.000000	16.482759	0.000000	-1.000000	-1.000000	329991.000000	1772914596.590429
6367.725000	93376.395000	-11871.720000	-25610.130000	0.000000	0.000000	0.000000	0.000000	-6.142513	0.997168	-3.080520	-5.141218	0.000000	0.000000	-0.000000	-0.000000	4.562740	-0.076300	-1.159760	-0.129028	0.850950	0.520201	-1.000000	-1.000000	-1.000000	-1.000000	-1.000000	-1.000000	-1.000000	16.482759	0.000000	-1.000000	-1.000000	329992.000000	1772914596.590432
6381.135000	93365.235000	-11859.480000	-25597.800000	0.000000	0.000000	0.000000	0.000000	-24.082665	-19.923974	-15.893350	-20.158961	0.000000	0.000000	-0.000000	-0.000000	4.562740	-0.076300	-1.159760	-0.129028	0.850950	0.520201	-1.000000	-1.000000	-1.000000	-1.000000	-1.000000	-1.000000	-1.000000	16.482759	0.000000	-1.000000	-1.000000	329993.000000	1772914596.591564
6385.050000	93376.215000	-11864.160000	-25599.825000	0.000000	0.000000	0.000000	0.000000	-31.234659	-30.357534	-22.388908	-26.441933	0.000000	0.000000	-0.000000	-0.000000	4.562740	-0.076300	-1.159760	-0.129028	0.850950	0.520201	-1.000000	-1.000000	-1.000000	-1.000000	-1.000000	-1.000000	-1.000000	16.482759	0.000000	-1.000000	-1.000000	329994.000000	1772914596.591566
6401.160000	93399.840000	-11857.500000	-25590.015000	0.000000	0.000000	0.000000	0.000000	-22.443688	-24.870736	-17.892280	-19.733685	0.000000	0.000000	-0.000000	-0.000000	4.562740	-0.076300	-1.159760	-0.129028	0.850950	0.520201	-1.000000	-1.000000	-1.000000	-1.000000	-1.000000	-1.000000	-1.000000	16.482759	0.000000	-1.000000	-1.000000	329995.000000	1772914596.596786
6421.905000	93425.310000	-11841.345000	-25568.460000	0.000000	0.000000	0.000000	0.000000	-2.582843	-6.229628	-4.982352	-3.832587	0.000000	0.000000	-0.000000	-0.000000	4.562740	-0.076300	-1.159760	-0.129028	0.850950	0.520201	-1.000000	-1.000000	-1.000000	-1.000000	-1.000000	-1.000000	-1.000000	16.482759	0.000000	-1.000000	-1.000000	329996.000000	1772914596.596789
6439.185000	93436.380000	-11826.270000	-25556.355000	0.000000	0.000000	0.000000	0.000000	17.948050	15.767637	9.853756	13.310338	0.000000	0.000000	-0.000000	-0.000000	4.562740	-0.076300	-1.159760	-0.129028	0.850950	0.520201	-1.000000	-1.000000	-1.000000	-1.000000	-1.000000	-1.000000	-1.000000	16.482759	0.000000	-1.000000	-1.000000	329997.000000	1772914596.599502
6427.755000	93425.985000	-11833.065000	-25568.685000	0.000000	0.000000	0.000000	0.000000	29.308728	29.281008	19.939093	23.708436	0.000000	0.000000	-0.000000	-0.000000	4.562740	-0.076300	-1.159760	-0.129028	0.850950	0.520201	-1.000000	-1.000000	-1.000000	-1.000000	-1.000000	-1.000000	-1.000000	16.482759	0.000000	-1.000000	-1.000000	329998.000000	1772914596.599505
6397.020000	93404.475000	-11855.295000	-25594.335000	0.000000	0.000000	0.000000	0.000000	25.841315	26.880187	20.277790	21.968974	0.000000	0.000000	-0.000000	-0.000000	4.562740	-0.076300	-1.159760	-0.129028	0.850950	0.520201	-1.000000	-1.000000	-1.000000	-1.000000	-1.000000	-1.000000	-1.000000	16.482759	0.000000	-1.000000	-1.000000	329999.000000	1772914596.603529
6385.410000	93386.205000	-11861.640000	-25606.980000	0.000000	0.000000	0.000000	0.000000	8.990671	10.007041	10.292520	8.622356	0.000000	0.000000	-0.000000	-0.000000	4.562740	-0.076300	-1.159760	-0.129028	0.850950	0.520201	-1.000000	-1.000000	-1.000000	-1.000000	-1.000000	-1.000000	-1.000000	16.482759	0.000000	-1.000000	-1.000000	330000.000000	1772914596.603539
6391.395000	93376.935000	-11855.880000	-25603.785000	0.000000	0.000000	0.000000	0.000000	-11.712021	-11.690040	-4.171944	-8.578971	0.000000	0.000000	-0.000000	-0.000000	2.197440	-0.518840	-1.327620	-0.128784	0.852293	0.520384	-1.000000	-1.000000	-1.000000	-1.000000	-1.000000	-1.000000	-1.000000	16.482759	0.000000	-1.000000	-1.000000	330001.000000	1772914596.607568
6390.900000	93384.045000	-11858.670000	-25597.980000	0.000000	0.000000	0.000000	0.000000	-24.161434	-26.185362	-14.383478	-19.247184	0.000000	0.000000	-0.000000	-0.000000	2.197440	-0.518840	-1.327620	-0.128784	0.852293	0.520384	-1.000000	-1.000000	-1.000000	-1.000000	-1.000000	-1.000000	-1.000000	16.482759	0.000000	-1.000000	-1.000000	330002.000000	1772914596.607573
6404.355000	93401.325000	-11853.135000	-25586.235000	0.000000	0.000000	0.000000	0.000000	-22.401035	-26.027824	-15.486590	-17.796135	0.000000	0.000000	-0.000000	-0.000000	2.197440	-0.518840	-1.327620	-0.128784	0.852293	0.520384	-1.000000	-1.000000	-1.000000	-1.000000	-1.000000	-1.000000	-1.000000	16.482759	0.000000	-1.000000	-1.000000	330003.000000	1772914596.611406
6413.670000	93422.745000	-11850.255000	-25581.015000	0.000000	0.000000	0.000000	0.000000	-9.431203	-12.078814	-8.854607	-6.648186	0.000000	0.000000	-0.000000	-0.000000	2.197440	-0.518840	-1.327620	-0.128784	0.852293	0.520384	-1.000000	-1.000000	-1.000000	-1.000000	-1.000000	-1.000000	-1.000000	16.482759	0.000000	-1.000000	-1.000000	330004.000000	1772914596.611411
6404.940000	93437.595000	-11864.385000	-25590.240000	0.000000	0.000000	0.000000	0.000000	6.243651	7.590540	0.280968	6.365946	0.000000	0.000000	-0.000000	-0.000000	2.197440	-0.518840	-1.327620	-0.128784	0.852293	0.520384	-1.000000	-1.000000	-1.000000	-1.000000	-1.000000	-1.000000	-1.000000	16.482759	0.000000	-1.000000	-1.000000	330005.000000	1772914596.615575
6414.255000	93440.430000	-11855.565000	-25584.120000	0.000000	0.000000	0.000000	0.000000	16.075875	22.460806	6.569041	13.620054	0.000000	0.000000	-0.000000	-0.000000	2.197440	-0.518840	-1.327620	-0.128784	0.852293	0.520384	-1.000000	-1.000000	-1.000000	-1.000000	-1.000000	-1.000000	-1.000000	16.482759	0.000000	-1.000000	-1.000000	330006.000000	1772914596.615580
6415.155000	93427.110000	-11843.865000	-25577.415000	0.000000	0.000000	0.000000	0.000000	16.618776	25.041574	8.297851	12.789427	0.000000	0.000000	-0.000000	-0.000000	2.197440	-0.518840	-1.327620	-0.128784	0.852293	0.520384	-1.000000	-1.000000	-1.000000	-1.000000	-1.000000	-1.000000	-1.000000	16.482759	0.000000	-1.000000	-1.000000	330007.000000	1772914596.619709
6398.550000	93403.530000	-11851.425000	-25589.565000	0.000000	0.000000	0.000000	0.000000	9.880388	14.279443	7.120245	6.658655	0.000000	0.000000	-0.000000	-0.000000	2.197440	-0.518840	-1.327620	-0.128784	0.852293	0.520384	-1.000000	-1.000000	-1.000000	-1.000000	-1.000000	-1.000000	-1.000000	16.482759	0.000000	-1.000000	-1.000000	330008.000000	1772914596.619713
6389.955000	93387.735000	-11858.355000	-25600.140000	0.000000	0.000000	0.000000	0.000000	-0.213360	-4.158290	4.289806	-1.164100	0.000000	0.000000	-0.000000	-0.000000	2.197440	-0.518840	-1.327620	-0.128784	0.852293	0.520384	-1.000000	-1.000000	-1.000000	-1.000000	-1.000000	-1.000000	-1.000000	16.482759	0.000000	-1.000000	-1.000000	330009.000000	1772914596.623454
6396.930000	93391.785000	-11854.215000	-25596.045000	0.000000	0.000000	0.000000	0.000000	-9.196311	-20.435653	0.221254	-7.847299	0.000000	0.000000	-0.000000	-0.000000	2.197440	-0.518840	-1.327620	-0.128784	0.852293	0.520384	-1.000000	-1.000000	-1.000000	-1.000000	-1.000000	-1.000000	-1.000000	16.482759	0.000000	-1.000000	-1.000000	330010.000000	1772914596.623463
6404.985000	93412.620000	-11852.955000	-25587.045000	0.000000	0.000000	0.000000	0.000000	-12.625127	-25.407396	-3.539409	-10.524004	0.000000	0.000000	-0.000000	-0.000000	1.022420	-0.488320	-1.724380	-0.127868	0.851499	0.519957	-1.000000	-1.000000	-1.000000	-1.000000	-1.000000	-1.000000	-1.000000	16.482759	0.000000	-1.000000	-1.000000	330011.000000	1772914596.627568
6409.935000	93443.535000	-11855.565000	-25581.375000	0.000000	0.000000	0.000000	0.000000	-8.916828	-15.885343	-5.167074	-7.657712	0.000000	0.000000	-0.000000	-0.000000	1.022420	-0.488320	-1.724380	-0.127868	0.851499	0.519957	-1.000000	-1.000000	-1.000000	-1.000000	-1.000000	-1.000000	-1.000000	16.482759	0.000000	-1.000000	-1.000000	330012.000000	1772914596.627573
6412.230000	93467.070000	-11859.165000	-25584.255000	0.000000	0.000000	0.000000	0.000000	-0.979222	3.118471	-4.505968	-1.143232	0.000000	0.000000	-0.000000	-0.000000	1.022420	-0.488320	-1.724380	-0.127868	0.851499	0.519957	-1.000000	-1.000000	-1.000000	-1.000000	-1.000000	-1.000000	-1.000000	16.482759	0.000000	-1.000000	-1.000000	330013.000000	1772914596.631541
6420.690000	93474.135000	-11846.205000	-25573.095000	0.000000	0.000000	0.000000	0.000000	6.244937	20.960203	-2.482076	4.941687	0.000000	0.000000	-0.000000	-0.000000	1.022420	-0.488320	-1.724380	-0.127868	0.851499	0.519957	-1.000000	-1.000000	-1.000000	-1.000000	-1.000000	-1.000000	-1.000000	16.482759	0.000000	-1.000000	-1.000000	330014.000000	1772914596.631545
6417.045000	93461.355000	-11841.480000	-25573.590000	0.000000	0.000000	0.000000	0.000000	9.302785	27.332097	0.353033	7.725611	0.000000	0.000000	-0.000000	-0.000000	1.022420	-0.488320	-1.724380	-0.127868	0.851499	0.519957	-1.000000	-1.000000	-1.000000	-1.000000	-1.000000	-1.000000	-1.000000	16.482759	0.000000	-1.000000	-1.000000	330015.000000	1772914596.635528
6414.525000	93439.035000	-11836.215000	-25570.980000	0.000000	0.000000	0.000000	0.000000	7.390165	18.204938	3.342281	6.739982	0.000000	0.000000	-0.000000	-0.000000	1.022420	-0.488320	-1.724380	-0.127868	0.851499	0.519957	-1.000000	-1.000000	-1.000000	-1.000000	-1.000000	-1.000000	-1.000000	16.482759	0.000000	-1.000000	-1.000000	330016.000000	1772914596.635531
6442.110000	93419.910000	-11807.055000	-25541.415000	0.000000	0.000000	0.000000	0.000000	2.512836	-1.730423	5.560580	3.597396	-0.000000	0.000000	-0.000000	-0.000000	1.022420	-0.488320	-1.724380	-0.127868	0.851499	0.519957	-1.000000	-1.000000	-1.000000	-1.000000	-1.000000	-1.000000	-1.000000	16.482759	0.000000	-1.000000	-1.000000	330017.000000	1772914596.639562
6416.145000	93412.395000	-11840.445000	-25578.855000	0.000000	0.000000	0.000000	0.000000	-1.953290	-21.660562	6.027779	0.341343	-0.000000	0.000000	-0.000000	-0.000000	1.022420	-0.488320	-1.724380	-0.127868	0.851499	0.519957	-1.000000	-1.000000	-1.000000	-1.000000	-1.000000	-1.000000	-1.000000	16.482759	0.000000	-1.000000	-1.000000	330018.000000	1772914596.639566
6395.940000	93423.060000	-11866.635000	-25609.860000	0.000000	0.000000	0.000000	0.000000	-5.251571	-30.751761	2.514146	-3.841355	-0.000000	0.000000	-0.000000	-0.000000	1.022420	-0.488320	-1.724380	-0.127868	0.851499	0.519957	-1.000000	-1.000000	-1.000000	-1.000000	-1.000000	-1.000000	-1.000000	16.482759	0.000000	-1.000000	-1.000000	330019.000000	1772914596.643467
6396.795000	93444.210000	-11872.485000	-25606.755000	0.000000	0.000000	0.000000	0.000000	-8.514964	-24.053714	-5.705706	-10.048006	-0.000000	0.000000	-0.000000	-0.000000	1.022420	-0.488320	-1.724380	-0.127868	0.851499	0.519957	-1.000000	-1.000000	-1.000000	-1.000000	-1.000000	-1.000000	-1.000000	16.482759	0.000000	-1.000000	-1.000000	330020.000000	1772914596.643471
6419.970000	93465.495000	-11857.905000	-25585.560000	0.000000	0.000000	0.000000	0.000000	-9.849363	-5.041536	-13.506056	-14.033898	-0.000000	0.000000	-0.000000	-0.000000	0.442540	-1.068200	-0.564620	-0.130310	0.852049	0.519896	-1.000000	-1.000000	-1.000000	-1.000000	-1.000000	-1.000000	-1.000000	16.482759	0.000000	-1.000000	-1.000000	330021.000000	1772914596.647441
6437.925000	93475.755000	-11840.940000	-25568.820000	0.000000	0.000000	0.000000	0.000000	-5.561836	16.342913	-13.565111	-9.794652	-0.000000	0.000000	-0.000000	-0.000000	0.442540	-1.068200	-0.564620	-0.130310	0.852049	0.519896	-1.000000	-1.000000	-1.000000	-1.000000	-1.000000	-1.000000	-1.000000	16.482759	0.000000	-1.000000	-1.000000	330022.000000	1772914596.647444
6437.025000	93462.525000	-11838.195000	-25568.190000	0.000000	0.000000	0.000000	0.000000	3.767834	28.928464	-4.262676	2.157430	-0.000000	0.000000	-0.000000	-0.000000	0.442540	-1.068200	-0.564620	-0.130310	0.852049	0.519896	-1.000000	-1.000000	-1.000000	-1.000000	-1.000000	-1.000000	-1.000000	16.482759	0.000000	-1.000000	-1.000000	330023.000000	1772914596.651580
6414.570000	93439.305000	-11852.460000	-25585.740000	0.000000	0.000000	0.000000	0.000000	11.721124	26.107103	8.054017	13.838216	-0.000000	0.000000	-0.000000	-0.000000	0.442540	-1.068200	-0.564620	-0.130310	0.852049	0.519896	-1.000000	-1.000000	-1.000000	-1.000000	-1.000000	-1.000000	-1.000000	16.482759	0.000000	-1.000000	-1.000000	330024.000000	1772914596.651583
6400.620000	93416.130000	-11860.470000	-25596.990000	0.000000	0.000000	0.000000	0.000000	11.631307	9.564280	14.644587	16.852390	-0.000000	0.000000	-0.000000	-0.000000	0.442540	-1.068200	-0.564620	-0.130310	0.852049	0.519896	-1.000000	-1.000000	-1.000000	-1.000000	-1.000000	-1.000000	-1.000000	16.482759	0.000000	-1.000000	-1.000000	330025.000000	1772914596.655498
6413.580000	93409.920000	-11844.945000	-25586.640000	0.000000	0.000000	0.000000	0.000000	3.629268	-11.314746	12.304913	9.997995	-0.000000	0.000000	-0.000000	-0.000000	0.442540	-1.068200	-0.564620	-0.130310	0.852049	0.519896	-1.000000	-1.000000	-1.000000	-1.000000	-1.000000	-1.000000	-1.000000	16.482759	0.000000	-1.000000	-1.000000	330026.000000	1772914596.655501
6410.160000	93419.370000	-11850.570000	-25585.830000	0.000000	0.000000	0.000000	0.000000	-5.346337	-24.707896	5.045141	-0.343860	-0.000000	0.000000	-0.000000	-0.000000	0.442540	-1.068200	-0.564620	-0.130310	0.852049	0.519896	-1.000000	-1.000000	-1.000000	-1.000000	-1.000000	-1.000000	-1.000000	16.482759	0.000000	-1.000000	-1.000000	330027.000000	1772914596.659498
6394.095000	93436.695000	-11877.570000	-25607.295000	0.000000	0.000000	0.000000	0.000000	-9.277464	-23.364062	-2.164987	-7.509371	-0.000000	0.000000	-0.000000	-0.000000	0.442540	-1.068200	-0.564620	-0.130310	0.852049	0.519896	-1.000000	-1.000000	-1.000000	-1.000000	-1.000000	-1.000000	-1.000000	16.482759	0.000000	-1.000000	-1.000000	330028.000000	1772914596.659501
6414.705000	93458.385000	-11868.795000	-25599.105000	0.000000	0.000000	0.000000	0.000000	-7.558712	-8.739448	-7.464156	-9.725755	-0.000000	0.000000	-0.000000	-0.000000	0.442540	-1.068200	-0.564620	-0.130310	0.852049	0.519896	-1.000000	-1.000000	-1.000000	-1.000000	-1.000000	-1.000000	-1.000000	16.482759	0.000000	-1.000000	-1.000000	330029.000000	1772914596.663546
6429.510000	93474.180000	-11854.800000	-25583.175000	0.000000	0.000000	0.000000	0.000000	-1.871344	10.515902	-9.301442	-7.583305	-0.000000	0.000000	-0.000000	-0.000000	0.442540	-1.068200	-0.564620	-0.130310	0.852049	0.519896	-1.000000	-1.000000	-1.000000	-1.000000	-1.000000	-1.000000	-1.000000	16.482759	0.000000	-1.000000	-1.000000	330030.000000	1772914596.663549
6427.080000	93470.445000	-11852.640000	-25582.545000	0.000000	0.000000	0.000000	0.000000	5.417365	23.831374	-5.991628	-1.882916	-0.000000	0.000000	-0.000000	-0.000000	-1.571780	-1.754900	0.228900	-0.132934	0.855833	0.522276	-1.000000	-1.000000	-1.000000	-1.000000	-1.000000	-1.000000	-1.000000	16.482759	0.000000	-1.000000	-1.000000	330031.000000	1772914596.667559
6417.720000	93448.260000	-11853.000000	-25587.945000	0.000000	0.000000	0.000000	0.000000	10.089738	23.987790	0.735100	4.524237	-0.000000	0.000000	-0.000000	-0.000000	-1.571780	-1.754900	0.228900	-0.132934	0.855833	0.522276	-1.000000	-1.000000	-1.000000	-1.000000	-1.000000	-1.000000	-1.000000	16.482759	0.000000	-1.000000	-1.000000	330032.000000	1772914596.667562
6407.595000	93417.300000	-11852.640000	-25592.535000	0.000000	0.000000	0.000000	0.000000	8.537076	10.497145	6.328453	7.530038	-0.000000	0.000000	-0.000000	-0.000000	-1.571780	-1.754900	0.228900	-0.132934	0.855833	0.522276	-1.000000	-1.000000	-1.000000	-1.000000	-1.000000	-1.000000	-1.000000	16.482759	0.000000	-1.000000	-1.000000	330033.000000	1772914596.671520
6399.720000	93398.265000	-11856.600000	-25597.620000	0.000000	0.000000	0.000000	0.000000	1.392485	-9.824456	7.548351	5.468953	-0.000000	0.000000	-0.000000	-0.000000	-1.571780	-1.754900	0.228900	-0.132934	0.855833	0.522276	-1.000000	-1.000000	-1.000000	-1.000000	-1.000000	-1.000000	-1.000000	16.482759	0.000000	-1.000000	-1.000000	330034.000000	1772914596.671523
6399.675000	93399.390000	-11863.755000	-25599.015000	0.000000	0.000000	0.000000	0.000000	-6.768333	-25.879283	4.311875	0.306134	-0.000000	0.000000	-0.000000	-0.000000	-1.571780	-1.754900	0.228900	-0.132934	0.855833	0.522276	-1.000000	-1.000000	-1.000000	-1.000000	-1.000000	-1.000000	-1.000000	16.482759	0.000000	-1.000000	-1.000000	330035.000000	1772914596.675407
6407.955000	93420.135000	-11864.700000	-25594.605000	0.000000	0.000000	0.000000	0.000000	-10.762835	-28.209308	-1.098109	-4.286113	-0.000000	0.000000	-0.000000	-0.000000	-1.571780	-1.754900	0.228900	-0.132934	0.855833	0.522276	-1.000000	-1.000000	-1.000000	-1.000000	-1.000000	-1.000000	-1.000000	16.482759	0.000000	-1.000000	-1.000000	330036.000000	1772914596.675410
6424.695000	93446.955000	-11854.890000	-25580.565000	0.000000	0.000000	0.000000	0.000000	-8.022568	-14.711621	-5.330855	-5.333979	-0.000000	0.000000	-0.000000	-0.000000	-1.571780	-1.754900	0.228900	-0.132934	0.855833	0.522276	-1.000000	-1.000000	-1.000000	-1.000000	-1.000000	-1.000000	-1.000000	16.482759	0.000000	-1.000000	-1.000000	330037.000000	1772914596.680763
6438.870000	93468.735000	-11845.665000	-25567.290000	0.000000	0.000000	0.000000	0.000000	0.048682	7.719943	-5.668108	-2.117183	-0.000000	0.000000	-0.000000	-0.000000	-1.571780	-1.754900	0.228900	-0.132934	0.855833	0.522276	-1.000000	-1.000000	-1.000000	-1.000000	-1.000000	-1.000000	-1.000000	16.482759	0.000000	-1.000000	-1.000000	330038.000000	1772914596.680767
6440.490000	93473.280000	-11843.595000	-25566.570000	0.000000	0.000000	0.000000	0.000000	8.749829	26.974331	-2.084699	3.201149	-0.000000	0.000000	-0.000000	-0.000000	-1.571780	-1.754900	0.228900	-0.132934	0.855833	0.522276	-1.000000	-1.000000	-1.000000	-1.000000	-1.000000	-1.000000	-1.000000	16.482759	0.000000	-1.000000	-1.000000	330039.000000	1772914596.684061
6437.835000	93459.015000	-11842.290000	-25573.050000	0.000000	0.000000	0.000000	0.000000	12.658464	32.507105	2.519908	6.552339	-0.000000	0.000000	-0.000000	-0.000000	-1.571780	-1.754900	0.228900	-0.132934	0.855833	0.522276	-1.000000	-1.000000	-1.000000	-1.000000	-1.000000	-1.000000	-1.000000	16.482759	0.000000	-1.000000	-1.000000	330040.000000	1772914596.684063
6426.135000	93437.460000	-11846.385000	-25582.500000	0.000000	0.000000	0.000000	0.000000	9.084415	21.145700	4.765701	4.906807	-0.000000	0.000000	-0.000000	-0.000000	2.029580	-1.617560	2.044840	-0.132507	0.845762	0.523741	-1.000000	-1.000000	-1.000000	-1.000000	-1.000000	-1.000000	-1.000000	16.482759	0.000000	-1.000000	-1.000000	330041.000000	1772914596.687511
6403.095000	93421.170000	-11862.945000	-25601.400000	0.000000	0.000000	0.000000	0.000000	-0.446447	-1.113053	3.075442	-1.362627	-0.000000	0.000000	-0.000000	-0.000000	2.029580	-1.617560	2.044840	-0.132507	0.845762	0.523741	-1.000000	-1.000000	-1.000000	-1.000000	-1.000000	-1.000000	-1.000000	16.482759	0.000000	-1.000000	-1.000000	330042.000000	1772914596.687513
6396.165000	93426.300000	-11871.675000	-25610.310000	0.000000	0.000000	0.000000	0.000000	-11.293002	-22.271975	-1.793693	-8.878717	-0.000000	0.000000	-0.000000	-0.000000	2.029580	-1.617560	2.044840	-0.132507	0.845762	0.523741	-1.000000	-1.000000	-1.000000	-1.000000	-1.000000	-1.000000	-1.000000	16.482759	0.000000	-1.000000	-1.000000	330043.000000	1772914596.691971
6406.020000	93448.170000	-11868.705000	-25604.505000	0.000000	0.000000	0.000000	0.000000	-17.464945	-30.878896	-6.832368	-13.053820	-0.000000	0.000000	-0.000000	-0.000000	2.029580	-1.617560	2.044840	-0.132507	0.845762	0.523741	-1.000000	-1.000000	-1.000000	-1.000000	-1.000000	-1.000000	-1.000000	16.482759	0.000000	-1.000000	-1.000000	330044.000000	1772914596.691974
6416.460000	93472.920000	-11867.355000	-25596.270000	0.000000	0.000000	0.000000	0.000000	-14.585966	-22.603303	-8.262137	-10.471003	-0.000000	0.000000	-0.000000	-0.000000	2.029580	-1.617560	2.044840	-0.132507	0.845762	0.523741	-1.000000	-1.000000	-1.000000	-1.000000	-1.000000	-1.000000	-1.000000	16.482759	0.000000	-1.000000	-1.000000	330045.000000	1772914596.695592
6434.910000	93495.645000	-11855.790000	-25578.720000	0.000000	0.000000	0.000000	0.000000	-3.338681	-2.789718	-4.476057	-1.393170	-0.000000	0.000000	-0.000000	-0.000000	2.029580	-1.617560	2.044840	-0.132507	0.845762	0.523741	-1.000000	-1.000000	-1.000000	-1.000000	-1.000000	-1.000000	-1.000000	16.482759	0.000000	-1.000000	-1.000000	330046.000000	1772914596.695596
6436.305000	93504.465000	-11856.060000	-25582.860000	0.000000	0.000000	0.000000	0.000000	10.377188	17.077874	2.616902	9.720766	-0.000000	0.000000	-0.000000	-0.000000	2.029580	-1.617560	2.044840	-0.132507	0.845762	0.523741	-1.000000	-1.000000	-1.000000	-1.000000	-1.000000	-1.000000	-1.000000	16.482759	0.000000	-1.000000	-1.000000	330047.000000	1772914596.700956
6426.405000	93496.005000	-11860.605000	-25592.670000	0.000000	0.000000	0.000000	0.000000	18.824217	26.218183	8.783541	16.399789	-0.000000	0.000000	-0.000000	-0.000000	2.029580	-1.617560	2.044840	-0.132507	0.845762	0.523741	-1.000000	-1.000000	-1.000000	-1.000000	-1.000000	-1.000000	-1.000000	16.482759	0.000000	-1.000000	-1.000000	330048.000000	1772914596.700958
6419.790000	93474.045000	-11856.645000	-25587.315000	0.000000	0.000000	0.000000	0.000000	17.171868	20.116622	10.395954	14.653614	-0.000000	0.000000	-0.000000	-0.000000	2.029580	-1.617560	2.044840	-0.132507	0.845762	0.523741	-1.000000	-1.000000	-1.000000	-1.000000	-1.000000	-1.000000	-1.000000	16.482759	0.000000	-1.000000	-1.000000	330049.000000	1772914596.703516
6400.485000	93450.870000	-11871.585000	-25603.020000	0.000000	0.000000	0.000000	0.000000	6.643240	2.400311	6.898489	6.088861	-0.000000	0.000000	-0.000000	-0.000000	2.029580	-1.617560	2.044840	-0.132507	0.845762	0.523741	-1.000000	-1.000000	-1.000000	-1.000000	-1.000000	-1.000000	-1.000000	16.482759	0.000000	-1.000000	-1.000000	330050.000000	1772914596.703519
6397.965000	93441.735000	-11871.270000	-25606.440000	0.000000	0.000000	0.000000	0.000000	-6.684819	-17.243660	0.426299	-4.277678	-0.000000	0.000000	-0.000000	-0.000000	7.309540	-0.305200	0.854560	-0.126953	0.838743	0.524962	-1.000000	-1.000000	-1.000000	-1.000000	-1.000000	-1.000000	-1.000000	16.482759	0.000000	-1.000000	-1.000000	330051.000000	1772914596.707568
6421.455000	93451.770000	-11846.475000	-25581.870000	0.000000	0.000000	0.000000	0.000000	-15.243590	-28.013110	-5.174886	-11.139619	-0.000000	0.000000	-0.000000	-0.000000	7.309540	-0.305200	0.854560	-0.126953	0.838743	0.524962	-1.000000	-1.000000	-1.000000	-1.000000	-1.000000	-1.000000	-1.000000	16.482759	0.000000	-1.000000	-1.000000	330052.000000	1772914596.707572
6426.270000	93474.855000	-11838.195000	-25578.000000	0.000000	0.000000	0.000000	0.000000	-13.995481	-23.692692	-5.995199	-10.801833	-0.000000	0.000000	-0.000000	-0.000000	7.309540	-0.305200	0.854560	-0.126953	0.838743	0.524962	-1.000000	-1.000000	-1.000000	-1.000000	-1.000000	-1.000000	-1.000000	16.482759	0.000000	-1.000000	-1.000000	330053.000000	1772914596.711551
6455.160000	93501.450000	-11810.385000	-25565.535000	0.000000	0.000000	0.000000	0.000000	-4.090867	-6.193670	-1.467673	-4.069331	-0.000000	0.000000	-0.000000	-0.000000	7.309540	-0.305200	0.854560	-0.126953	0.838743	0.524962	-1.000000	-1.000000	-1.000000	-1.000000	-1.000000	-1.000000	-1.000000	16.482759	0.000000	-1.000000	-1.000000	330054.000000	1772914596.711553
6471.720000	93515.985000	-11792.565000	-25544.655000	0.000000	0.000000	0.000000	0.000000	8.350257	15.330697	5.173674	4.309281	-0.000000	0.000000	-0.000000	-0.000000	7.309540	-0.305200	0.854560	-0.126953	0.838743	0.524962	-1.000000	-1.000000	-1.000000	-1.000000	-1.000000	-1.000000	-1.000000	16.482759	0.000000	-1.000000	-1.000000	330055.000000	1772914596.715568
6460.110000	93509.595000	-11831.580000	-25558.020000	0.000000	0.000000	0.000000	0.000000	16.203026	29.320517	8.693494	9.469239	-0.000000	0.000000	-0.000000	-0.000000	7.309540	-0.305200	0.854560	-0.126953	0.838743	0.524962	-1.000000	-1.000000	-1.000000	-1.000000	-1.000000	-1.000000	-1.000000	16.482759	0.000000	-1.000000	-1.000000	330056.000000	1772914596.715571
6466.500000	93487.950000	-11829.060000	-25549.155000	0.000000	0.000000	0.000000	0.000000	14.639662	27.991003	4.485687	8.527550	-0.000000	0.000000	-0.000000	-0.000000	7.309540	-0.305200	0.854560	-0.126953	0.838743	0.524962	-1.000000	-1.000000	-1.000000	-1.000000	-1.000000	-1.000000	-1.000000	16.482759	0.000000	-1.000000	-1.000000	330057.000000	1772914596.719575
6479.955000	93465.990000	-11798.550000	-25527.645000	0.000000	0.000000	0.000000	0.000000	4.862122	11.809483	-5.418086	2.603181	-0.000000	0.000000	-0.000000	-0.000000	7.309540	-0.305200	0.854560	-0.126953	0.838743	0.524962	-1.000000	-1.000000	-1.000000	-1.000000	-1.000000	-1.000000	-1.000000	16.482759	0.000000	-1.000000	-1.000000	330058.000000	1772914596.719578
6456.510000	93448.755000	-11817.135000	-25549.695000	0.000000	0.000000	0.000000	0.000000	-6.929391	-10.541407	-12.825937	-4.009188	-0.000000	0.000000	-0.000000	-0.000000	7.309540	-0.305200	0.854560	-0.126953	0.838743	0.524962	-1.000000	-1.000000	-1.000000	-1.000000	-1.000000	-1.000000	-1.000000	16.482759	0.000000	-1.000000	-1.000000	330059.000000	1772914596.727654
6403.995000	93446.865000	-11870.280000	-25595.505000	0.000000	0.000000	0.000000	0.000000	-16.437083	-27.169632	-14.147588	-9.523167	-0.000000	0.000000	-0.000000	-0.000000	7.309540	-0.305200	0.854560	-0.126953	0.838743	0.524962	-1.000000	-1.000000	-1.000000	-1.000000	-1.000000	-1.000000	-1.000000	16.482759	0.000000	-1.000000	-1.000000	330060.000000	1772914596.727658
6407.640000	93461.040000	-11870.460000	-25592.985000	0.000000	0.000000	0.000000	0.000000	-22.579495	-29.556721	-12.890365	-14.680547	-0.000000	0.000000	-0.000000	-0.000000	15.427860	4.593260	-2.350040	-0.118957	0.849668	0.535033	-1.000000	-1.000000	-1.000000	-1.000000	-1.000000	-1.000000	-1.000000	16.482759	0.000000	-1.000000	-1.000000	330061.000000	1772914596.728801
6458.895000	93477.060000	-11832.570000	-25553.115000	0.000000	0.000000	0.000000	0.000000	-21.583569	-16.842299	-9.825796	-16.225791	-0.000000	0.000000	-0.000000	-0.000000	15.427860	4.593260	-2.350040	-0.118957	0.849668	0.535033	-1.000000	-1.000000	-1.000000	-1.000000	-1.000000	-1.000000	-1.000000	16.482759	0.000000	-1.000000	-1.000000	330062.000000	1772914596.728803
6474.510000	93501.315000	-11830.995000	-25561.620000	0.000000	0.000000	0.000000	0.000000	-8.612618	4.146218	-1.239458	-8.894156	-0.000000	0.000000	-0.000000	-0.000000	15.427860	4.593260	-2.350040	-0.118957	0.849668	0.535033	-1.000000	-1.000000	-1.000000	-1.000000	-1.000000	-1.000000	-1.000000	16.482759	0.000000	-1.000000	-1.000000	330063.000000	1772914596.731533
6431.490000	93502.530000	-11868.165000	-25609.365000	0.000000	0.000000	0.000000	0.000000	11.551986	22.803545	11.072060	4.284187	-0.000000	0.000000	-0.000000	-0.000000	15.427860	4.593260	-2.350040	-0.118957	0.849668	0.535033	-1.000000	-1.000000	-1.000000	-1.000000	-1.000000	-1.000000	-1.000000	16.482759	0.000000	-1.000000	-1.000000	330064.000000	1772914596.731537
6442.830000	93491.685000	-11849.985000	-25600.770000	0.000000	0.000000	0.000000	0.000000	25.082740	29.879974	18.713809	13.125590	-0.000000	0.000000	-0.000000	-0.000000	15.427860	4.593260	-2.350040	-0.118957	0.849668	0.535033	-1.000000	-1.000000	-1.000000	-1.000000	-1.000000	-1.000000	-1.000000	16.482759	0.000000	-1.000000	-1.000000	330065.000000	1772914596.735653
6460.155000	93473.550000	-11824.515000	-25582.320000	0.000000	0.000000	0.000000	0.000000	24.404676	21.932121	17.961637	13.489712	-0.000000	0.000000	-0.000000	-0.000000	15.427860	4.593260	-2.350040	-0.118957	0.849668	0.535033	-1.000000	-1.000000	-1.000000	-1.000000	-1.000000	-1.000000	-1.000000	16.482759	0.000000	-1.000000	-1.000000	330066.000000	1772914596.735655
6450.345000	93453.660000	-11825.325000	-25584.435000	0.000000	0.000000	0.000000	0.000000	14.128036	3.330776	12.767193	10.140860	-0.000000	0.000000	-0.000000	-0.000000	15.427860	4.593260	-2.350040	-0.118957	0.849668	0.535033	-1.000000	-1.000000	-1.000000	-1.000000	-1.000000	-1.000000	-1.000000	16.482759	0.000000	-1.000000	-1.000000	330067.000000	1772914596.739540
6434.460000	93446.280000	-11858.445000	-25598.070000	0.000000	0.000000	0.000000	0.000000	1.638595	-16.161196	6.149886	7.138843	-0.000000	0.000000	-0.000000	-0.000000	15.427860	4.593260	-2.350040	-0.118957	0.849668	0.535033	-1.000000	-1.000000	-1.000000	-1.000000	-1.000000	-1.000000	-1.000000	16.482759	0.000000	-1.000000	-1.000000	330068.000000	1772914596.739543
6399.675000	93455.460000	-11905.695000	-25633.305000	0.000000	0.000000	0.000000	0.000000	-9.489644	-26.623318	-3.305339	3.336179	-0.000000	0.000000	-0.000000	-0.000000	15.427860	4.593260	-2.350040	-0.118957	0.849668	0.535033	-1.000000	-1.000000	-1.000000	-1.000000	-1.000000	-1.000000	-1.000000	16.482759	0.000000	-1.000000	-1.000000	330069.000000	1772914596.743658
6402.735000	93478.410000	-11910.015000	-25640.865000	0.000000	0.000000	0.000000	0.000000	-17.410650	-22.881486	-15.362237	-3.094114	-0.000000	0.000000	-0.000000	-0.000000	15.427860	4.593260	-2.350040	-0.118957	0.849668	0.535033	-1.000000	-1.000000	-1.000000	-1.000000	-1.000000	-1.000000	-1.000000	16.482759	0.000000	-1.000000	-1.000000	330070.000000	1772914596.743662
6429.780000	93500.280000	-11882.385000	-25612.470000	0.000000	0.000000	0.000000	0.000000	-18.647482	-7.122354	-23.131065	-9.230652	-0.000000	0.000000	-0.000000	-0.000000	-0.885080	-3.402980	-2.487380	-0.128357	0.834409	0.509337	-1.000000	-1.000000	-1.000000	-1.000000	-1.000000	-1.000000	-1.000000	16.482759	0.000000	-1.000000	-1.000000	330071.000000	1772914596.747431
6450.480000	93510.810000	-11857.365000	-25587.045000	0.000000	0.000000	0.000000	0.000000	-10.087523	12.074341	-18.226396	-8.777907	-0.000000	0.000000	-0.000000	-0.000000	-0.885080	-3.402980	-2.487380	-0.128357	0.834409	0.509337	-1.000000	-1.000000	-1.000000	-1.000000	-1.000000	-1.000000	-1.000000	16.482759	0.000000	-1.000000	-1.000000	330072.000000	1772914596.747434
6456.420000	93500.235000	-11846.475000	-25582.095000	0.000000	0.000000	0.000000	0.000000	5.311463	24.152870	-0.898112	-0.034083	-0.000000	0.000000	-0.000000	-0.000000	-0.885080	-3.402980	-2.487380	-0.128357	0.834409	0.509337	-1.000000	-1.000000	-1.000000	-1.000000	-1.000000	-1.000000	-1.000000	16.482759	0.000000	-1.000000	-1.000000	330073.000000	1772914596.751554
6430.095000	93476.880000	-11859.480000	-25593.930000	0.000000	0.000000	0.000000	0.000000	18.013042	22.309058	18.040754	10.303853	-0.000000	0.000000	-0.000000	-0.000000	-0.885080	-3.402980	-2.487380	-0.128357	0.834409	0.509337	-1.000000	-1.000000	-1.000000	-1.000000	-1.000000	-1.000000	-1.000000	16.482759	0.000000	-1.000000	-1.000000	330074.000000	1772914596.751557
6393.735000	93453.120000	-11891.070000	-25632.540000	0.000000	0.000000	0.000000	0.000000	18.656200	7.464392	25.603548	12.813714	-0.000000	0.000000	-0.000000	-0.000000	-0.885080	-3.402980	-2.487380	-0.128357	0.834409	0.509337	-1.000000	-1.000000	-1.000000	-1.000000	-1.000000	-1.000000	-1.000000	16.482759	0.000000	-1.000000	-1.000000	330075.000000	1772914596.755544
6398.100000	93444.165000	-11875.590000	-25618.230000	0.000000	0.000000	0.000000	0.000000	6.365862	-11.939533	17.301732	4.394081	-0.000000	0.000000	-0.000000	-0.000000	-0.885080	-3.402980	-2.487380	-0.128357	0.834409	0.509337	-1.000000	-1.000000	-1.000000	-1.000000	-1.000000	-1.000000	-1.000000	16.482759	0.000000	-1.000000	-1.000000	330076.000000	1772914596.755547
6410.970000	93453.570000	-11857.770000	-25594.875000	0.000000	0.000000	0.000000	0.000000	-9.127814	-24.625777	1.095178	-7.717810	-0.000000	0.000000	-0.000000	-0.000000	-0.885080	-3.402980	-2.487380	-0.128357	0.834409	0.509337	-1.000000	-1.000000	-1.000000	-1.000000	-1.000000	-1.000000	-1.000000	16.482759	0.000000	-1.000000	-1.000000	330077.000000	1772914596.759498
6456.375000	93481.560000	-11827.080000	-25566.570000	0.000000	0.000000	0.000000	0.000000	-15.341286	-22.991874	-10.242071	-12.607095	-0.000000	0.000000	-0.000000	-0.000000	-0.885080	-3.402980	-2.487380	-0.128357	0.834409	0.509337	-1.000000	-1.000000	-1.000000	-1.000000	-1.000000	-1.000000	-1.000000	16.482759	0.000000	-1.000000	-1.000000	330078.000000	1772914596.759501
6519.690000	93512.115000	-11779.380000	-25517.700000	0.000000	0.000000	0.000000	0.000000	-6.761104	-7.504194	-9.860188	-5.965449	-0.000000	0.000000	-0.000000	-0.000000	-0.885080	-3.402980	-2.487380	-0.128357	0.834409	0.509337	-1.000000	-1.000000	-1.000000	-1.000000	-1.000000	-1.000000	-1.000000	16.482759	0.000000	-1.000000	-1.000000	330079.000000	1772914596.763258
6464.205000	93525.030000	-11833.470000	-25565.940000	0.000000	0.000000	0.000000	0.000000	10.031427	13.307167	-1.572063	6.185794	-0.000000	0.000000	-0.000000	-0.000000	-0.885080	-3.402980	-2.487380	-0.128357	0.834409	0.509337	-1.000000	-1.000000	-1.000000	-1.000000	-1.000000	-1.000000	-1.000000	16.482759	0.000000	-1.000000	-1.000000	330080.000000	1772914596.763261
6451.470000	93521.070000	-11848.365000	-25592.895000	0.000000	0.000000	0.000000	0.000000	19.250822	27.383488	3.155989	11.477905	-0.000000	0.000000	-0.000000	-0.000000	17.335360	8.850800	6.317640	-0.123352	0.838438	0.529479	-1.000000	-1.000000	-1.000000	-1.000000	-1.000000	-1.000000	-1.000000	16.482759	0.000000	-1.000000	-1.000000	330081.000000	1772914596.767616
6460.200000	93503.385000	-11834.955000	-25585.245000	0.000000	0.000000	0.000000	0.000000	11.412515	26.275936	-2.233388	3.384203	-0.000000	0.000000	-0.000000	-0.000000	17.335360	8.850800	6.317640	-0.123352	0.838438	0.529479	-1.000000	-1.000000	-1.000000	-1.000000	-1.000000	-1.000000	-1.000000	16.482759	0.000000	-1.000000	-1.000000	330082.000000	1772914596.767618
6453.180000	93483.900000	-11828.340000	-25579.710000	0.000000	0.000000	0.000000	0.000000	-6.378768	10.376207	-11.496090	-10.654263	-0.000000	0.000000	-0.000000	-0.000000	17.335360	8.850800	6.317640	-0.123352	0.838438	0.529479	-1.000000	-1.000000	-1.000000	-1.000000	-1.000000	-1.000000	-1.000000	16.482759	0.000000	-1.000000	-1.000000	330083.000000	1772914596.771609
6471.180000	93471.660000	-11804.940000	-25560.855000	0.000000	0.000000	0.000000	0.000000	-20.110151	-11.490047	-14.443690	-17.923875	-0.000000	0.000000	-0.000000	-0.000000	17.335360	8.850800	6.317640	-0.123352	0.838438	0.529479	-1.000000	-1.000000	-1.000000	-1.000000	-1.000000	-1.000000	-1.000000	16.482759	0.000000	-1.000000	-1.000000	330084.000000	1772914596.771612
6500.970000	93475.755000	-11777.085000	-25519.410000	0.000000	0.000000	0.000000	0.000000	-21.121752	-27.419729	-7.380286	-12.357658	-0.000000	0.000000	-0.000000	-0.000000	17.335360	8.850800	6.317640	-0.123352	0.838438	0.529479	-1.000000	-1.000000	-1.000000	-1.000000	-1.000000	-1.000000	-1.000000	16.482759	0.000000	-1.000000	-1.000000	330085.000000	1772914596.775470
6460.425000	93497.805000	-11821.995000	-25550.415000	0.000000	0.000000	0.000000	0.000000	-10.650877	-28.972448	4.581802	1.939638	-0.000000	0.000000	-0.000000	-0.000000	17.335360	8.850800	6.317640	-0.123352	0.838438	0.529479	-1.000000	-1.000000	-1.000000	-1.000000	-1.000000	-1.000000	-1.000000	16.482759	0.000000	-1.000000	-1.000000	330086.000000	1772914596.775473
6499.305000	93532.455000	-11791.080000	-25520.940000	0.000000	0.000000	0.000000	0.000000	2.345579	-15.272060	12.024958	14.311809	-0.000000	0.000000	-0.000000	-0.000000	17.335360	8.850800	6.317640	-0.123352	0.838438	0.529479	-1.000000	-1.000000	-1.000000	-1.000000	-1.000000	-1.000000	-1.000000	16.482759	0.000000	-1.000000	-1.000000	330087.000000	1772914596.779502
6486.750000	93557.610000	-11829.240000	-25565.805000	0.000000	0.000000	0.000000	0.000000	10.417217	6.740301	10.343963	16.468108	-0.000000	0.000000	-0.000000	-0.000000	17.335360	8.850800	6.317640	-0.123352	0.838438	0.529479	-1.000000	-1.000000	-1.000000	-1.000000	-1.000000	-1.000000	-1.000000	16.482759	0.000000	-1.000000	-1.000000	330088.000000	1772914596.779505
6417.945000	93559.815000	-11897.190000	-25633.665000	0.000000	0.000000	0.000000	0.000000	10.677747	25.476191	0.977157	6.560206	-0.000000	0.000000	-0.000000	-0.000000	17.335360	8.850800	6.317640	-0.123352	0.838438	0.529479	-1.000000	-1.000000	-1.000000	-1.000000	-1.000000	-1.000000	-1.000000	16.482759	0.000000	-1.000000	-1.000000	330089.000000	1772914596.785659
6460.200000	93547.980000	-11817.180000	-25580.250000	0.000000	0.000000	0.000000	0.000000	3.183840	30.549484	-10.720182	-10.146762	-0.000000	0.000000	-0.000000	-0.000000	17.335360	8.850800	6.317640	-0.123352	0.838438	0.529479	-1.000000	-1.000000	-1.000000	-1.000000	-1.000000	-1.000000	-1.000000	16.482759	0.000000	-1.000000	-1.000000	330090.000000	1772914596.785661
6507.585000	93524.220000	-11762.370000	-25529.265000	0.000000	0.000000	0.000000	0.000000	-4.553880	18.871597	-13.343144	-19.720034	-0.000000	0.000000	-0.000000	-0.000000	-1.999060	-5.371520	-9.735880	-0.133789	0.880979	0.520445	-1.000000	-1.000000	-1.000000	-1.000000	-1.000000	-1.000000	-1.000000	16.482759	0.000000	-1.000000	-1.000000	330091.000000	1772914596.788587
6508.125000	93501.360000	-11776.860000	-25535.745000	0.000000	0.000000	0.000000	0.000000	-2.874769	-3.419012	-0.321758	-11.504614	-0.000000	0.000000	-0.000000	-0.000000	-1.999060	-5.371520	-9.735880	-0.133789	0.880979	0.520445	-1.000000	-1.000000	-1.000000	-1.000000	-1.000000	-1.000000	-1.000000	16.482759	0.000000	-1.000000	-1.000000	330092.000000	1772914596.788589
6411.735000	93484.935000	-11877.975000	-25632.495000	0.000000	0.000000	0.000000	0.000000	4.854727	-24.714526	15.900989	5.898946	-0.000000	0.000000	-0.000000	-0.000000	-1.999060	-5.371520	-9.735880	-0.133789	0.880979	0.520445	-1.000000	-1.000000	-1.000000	-1.000000	-1.000000	-1.000000	-1.000000	16.482759	0.000000	-1.000000	-1.000000	330093.000000	1772914596.793352
6434.775000	93501.270000	-11831.805000	-25618.860000	0.000000	0.000000	0.000000	0.000000	5.936772	-34.053762	17.168620	13.735446	-0.000000	0.000000	-0.000000	-0.000000	-1.999060	-5.371520	-9.735880	-0.133789	0.880979	0.520445	-1.000000	-1.000000	-1.000000	-1.000000	-1.000000	-1.000000	-1.000000	16.482759	0.000000	-1.000000	-1.000000	330094.000000	1772914596.793354
6548.175000	93538.935000	-11672.685000	-25510.905000	0.000000	0.000000	0.000000	0.000000	0.056958	-25.947791	6.668769	8.985456	-0.000000	0.000000	-0.000000	-0.000000	-1.999060	-5.371520	-9.735880	-0.133789	0.880979	0.520445	-1.000000	-1.000000	-1.000000	-1.000000	-1.000000	-1.000000	-1.000000	16.482759	0.000000	-1.000000	-1.000000	330095.000000	1772914596.796910
6628.365000	93574.845000	-11535.075000	-25418.520000	0.000000	0.000000	0.000000	0.000000	1.781992	-3.252851	6.327445	7.582869	-0.000000	0.000000	-0.000000	-0.000000	-1.999060	-5.371520	-9.735880	-0.133789	0.880979	0.520445	-1.000000	-1.000000	-1.000000	-1.000000	-1.000000	-1.000000	-1.000000	16.482759	0.000000	-1.000000	-1.000000	330096.000000	1772914596.796913
6600.105000	93587.040000	-11547.180000	-25407.990000	0.000000	0.000000	0.000000	0.000000	15.758664	22.801800	23.262813	18.560840	0.000000	0.000000	-0.000000	-0.000000	-1.999060	-5.371520	-9.735880	-0.133789	0.880979	0.520445	-1.000000	-1.000000	-1.000000	-1.000000	-1.000000	-1.000000	-1.000000	16.482759	0.000000	-1.000000	-1.000000	330097.000000	1772914596.800037
6596.730000	93575.925000	-11650.320000	-25424.820000	0.000000	0.000000	0.000000	0.000000	25.959142	37.751286	34.084645	29.177868	0.000000	0.000000	-0.000000	-0.000000	-1.999060	-5.371520	-9.735880	-0.133789	0.880979	0.520445	-1.000000	-1.000000	-1.000000	-1.000000	-1.000000	-1.000000	-1.000000	16.482759	0.000000	-1.000000	-1.000000	330098.000000	1772914596.800041
6469.425000	93538.035000	-11926.215000	-25554.420000	0.000000	0.000000	0.000000	0.000000	14.589641	32.382117	8.337936	19.407113	0.000000	0.000000	-0.000000	-0.000000	-1.999060	-5.371520	-9.735880	-0.133789	0.880979	0.520445	-1.000000	-1.000000	-1.000000	-1.000000	-1.000000	-1.000000	-1.000000	16.482759	0.000000	-1.000000	-1.000000	330099.000000	1772914596.803652
6356.160000	93506.265000	-11968.605000	-25672.095000	0.000000	0.000000	0.000000	0.000000	-20.358096	8.692694	-55.471364	-17.386854	0.000000	0.000000	-0.000000	-0.000000	-1.999060	-5.371520	-9.735880	-0.133789	0.880979	0.520445	-1.000000	-1.000000	-1.000000	-1.000000	-1.000000	-1.000000	-1.000000	16.482759	0.000000	-1.000000	-1.000000	330100.000000	1772914596.803654
6399.630000	93496.545000	-11895.930000	-25643.700000	0.000000	0.000000	0.000000	0.000000	-60.403669	-20.477957	-114.466996	-63.533711	0.000000	0.000000	-0.000000	-0.000000	-2.731540	-1.617560	4.486440	-0.126159	0.856016	0.513610	-1.000000	-1.000000	-1.000000	-1.000000	-1.000000	-1.000000	-1.000000	16.482759	0.000000	-1.000000	-1.000000	330101.000000	1772914596.807576
6530.220000	93513.645000	-11753.865000	-25500.690000	0.000000	0.000000	0.000000	0.000000	-72.456098	-38.409503	-112.204302	-82.429395	0.000000	0.000000	-0.000000	-0.000000	-2.731540	-1.617560	4.486440	-0.126159	0.856016	0.513610	-1.000000	-1.000000	-1.000000	-1.000000	-1.000000	-1.000000	-1.000000	16.482759	0.000000	-1.000000	-1.000000	330102.000000	1772914596.807578
6486.480000	93538.710000	-11793.555000	-25554.735000	0.000000	0.000000	0.000000	0.000000	-37.580450	-34.717876	-35.968464	-50.571732	0.000000	0.000000	-0.000000	-0.000000	-2.731540	-1.617560	4.486440	-0.126159	0.856016	0.513610	-1.000000	-1.000000	-1.000000	-1.000000	-1.000000	-1.000000	-1.000000	16.482759	0.000000	-1.000000	-1.000000	330103.000000	1772914596.811499
6419.205000	93568.905000	-11785.365000	-25595.955000	0.000000	0.000000	0.000000	0.000000	21.838554	-11.855366	65.907449	11.948636	0.000000	0.000000	-0.000000	-0.000000	-2.731540	-1.617560	4.486440	-0.126159	0.856016	0.513610	-1.000000	-1.000000	-1.000000	-1.000000	-1.000000	-1.000000	-1.000000	16.482759	0.000000	-1.000000	-1.000000	330104.000000	1772914596.811501
6456.600000	93594.330000	-11662.650000	-25552.980000	0.000000	0.000000	0.000000	0.000000	63.231793	17.130475	131.677433	61.458540	0.000000	0.000000	-0.000000	-0.000000	-2.731540	-1.617560	4.486440	-0.126159	0.856016	0.513610	-1.000000	-1.000000	-1.000000	-1.000000	-1.000000	-1.000000	-1.000000	16.482759	0.000000	-1.000000	-1.000000	330105.000000	1772914596.815542
6437.025000	93589.560000	-11691.630000	-25575.345000	0.000000	0.000000	0.000000	0.000000	67.008193	36.761415	136.078029	74.319295	0.000000	0.000000	-0.000000	-0.000000	-2.731540	-1.617560	4.486440	-0.126159	0.856016	0.513610	-1.000000	-1.000000	-1.000000	-1.000000	-1.000000	-1.000000	-1.000000	16.482759	0.000000	-1.000000	-1.000000	330106.000000	1772914596.815545
6455.160000	93561.795000	-11854.485000	-25595.145000	0.000000	0.000000	0.000000	0.000000	43.287093	36.847676	85.928867	54.746923	0.000000	0.000000	-0.000000	-0.000000	-2.731540	-1.617560	4.486440	-0.126159	0.856016	0.513610	-1.000000	-1.000000	-1.000000	-1.000000	-1.000000	-1.000000	-1.000000	16.482759	0.000000	-1.000000	-1.000000	330107.000000	1772914596.819573
6427.170000	93530.205000	-11890.485000	-25597.395000	0.000000	0.000000	0.000000	0.000000	11.302417	17.212770	1.265134	18.932125	0.000000	0.000000	-0.000000	-0.000000	-2.731540	-1.617560	4.486440	-0.126159	0.856016	0.513610	-1.000000	-1.000000	-1.000000	-1.000000	-1.000000	-1.000000	-1.000000	16.482759	0.000000	-1.000000	-1.000000	330108.000000	1772914596.819576
6418.845000	93508.335000	-11874.600000	-25562.340000	0.000000	0.000000	0.000000	0.000000	-14.945990	-11.797458	-81.407410	-14.201280	0.000000	0.000000	-0.000000	-0.000000	-2.731540	-1.617560	4.486440	-0.126159	0.856016	0.513610	-1.000000	-1.000000	-1.000000	-1.000000	-1.000000	-1.000000	-1.000000	16.482759	0.000000	-1.000000	-1.000000	330109.000000	1772914596.823552
6512.715000	93513.105000	-11834.370000	-25509.645000	0.000000	0.000000	0.000000	0.000000	-27.547009	-34.528837	-119.538396	-29.523439	0.000000	0.000000	-0.000000	-0.000000	-2.731540	-1.617560	4.486440	-0.126159	0.856016	0.513610	-1.000000	-1.000000	-1.000000	-1.000000	-1.000000	-1.000000	-1.000000	16.482759	0.000000	-1.000000	-1.000000	330110.000000	1772914596.823554
6591.915000	93538.755000	-11752.695000	-25446.330000	0.000000	0.000000	0.000000	0.000000	-21.309094	-38.584148	-94.909891	-22.799476	0.000000	0.000000	-0.000000	-0.000000	16.557100	2.975700	1.098720	-0.129150	0.851499	0.542235	-1.000000	-1.000000	-1.000000	-1.000000	-1.000000	-1.000000	-1.000000	16.482759	0.000000	-1.000000	-1.000000	330111.000000	1772914596.827520
6558.570000	93569.310000	-11760.840000	-25469.235000	0.000000	0.000000	0.000000	0.000000	-0.786978	-21.796855	-26.819336	-3.643148	0.000000	0.000000	-0.000000	-0.000000	16.557100	2.975700	1.098720	-0.129150	0.851499	0.542235	-1.000000	-1.000000	-1.000000	-1.000000	-1.000000	-1.000000	-1.000000	16.482759	0.000000	-1.000000	-1.000000	330112.000000	1772914596.827523
6661.125000	93606.930000	-11680.875000	-25433.235000	0.000000	0.000000	0.000000	0.000000	17.438631	6.707755	43.618228	10.796747	0.000000	0.000000	-0.000000	-0.000000	16.557100	2.975700	1.098720	-0.129150	0.851499	0.542235	-1.000000	-1.000000	-1.000000	-1.000000	-1.000000	-1.000000	-1.000000	16.482759	0.000000	-1.000000	-1.000000	330113.000000	1772914596.831635
6746.310000	93623.355000	-11575.080000	-25315.605000	0.000000	0.000000	0.000000	0.000000	22.649172	32.084182	84.051407	12.330350	0.000000	0.000000	-0.000000	-0.000000	16.557100	2.975700	1.098720	-0.129150	0.851499	0.542235	-1.000000	-1.000000	-1.000000	-1.000000	-1.000000	-1.000000	-1.000000	16.482759	0.000000	-1.000000	-1.000000	330114.000000	1772914596.831638
6708.960000	93604.995000	-11581.065000	-25310.970000	0.000000	0.000000	0.000000	0.000000	16.193410	41.319703	85.967308	7.179620	0.000000	0.000000	-0.000000	-0.000000	16.557100	2.975700	1.098720	-0.129150	0.851499	0.542235	-1.000000	-1.000000	-1.000000	-1.000000	-1.000000	-1.000000	-1.000000	16.482759	0.000000	-1.000000	-1.000000	330115.000000	1772914596.835561
6544.485000	93566.340000	-11744.370000	-25486.335000	0.000000	0.000000	0.000000	0.000000	-3.607905	28.935985	51.860826	-2.574533	0.000000	0.000000	-0.000000	-0.000000	16.557100	2.975700	1.098720	-0.129150	0.851499	0.542235	-1.000000	-1.000000	-1.000000	-1.000000	-1.000000	-1.000000	-1.000000	16.482759	0.000000	-1.000000	-1.000000	330116.000000	1772914596.835564
6479.955000	93536.685000	-11799.180000	-25659.405000	0.000000	0.000000	0.000000	0.000000	-39.672341	0.294957	-11.017219	-27.167256	0.000000	0.000000	-0.000000	-0.000000	16.557100	2.975700	1.098720	-0.129150	0.851499	0.542235	-1.000000	-1.000000	-1.000000	-1.000000	-1.000000	-1.000000	-1.000000	16.482759	0.000000	-1.000000	-1.000000	330117.000000	1772914596.839482
6467.220000	93530.835000	-11774.745000	-25724.250000	0.000000	0.000000	0.000000	0.000000	-76.832184	-29.729893	-76.974166	-65.618715	0.000000	0.000000	-0.000000	-0.000000	16.557100	2.975700	1.098720	-0.129150	0.851499	0.542235	-1.000000	-1.000000	-1.000000	-1.000000	-1.000000	-1.000000	-1.000000	16.482759	0.000000	-1.000000	-1.000000	330118.000000	1772914596.839485
6600.195000	93556.845000	-11641.140000	-25532.595000	0.000000	0.000000	0.000000	0.000000	-83.659787	-44.365638	-105.331546	-87.058229	0.000000	0.000000	-0.000000	-0.000000	16.557100	2.975700	1.098720	-0.129150	0.851499	0.542235	-1.000000	-1.000000	-1.000000	-1.000000	-1.000000	-1.000000	-1.000000	16.482759	0.000000	-1.000000	-1.000000	330119.000000	1772914596.845617
6478.155000	93577.995000	-11907.855000	-25651.395000	0.000000	0.000000	0.000000	0.000000	-44.297339	-35.218442	-78.855614	-58.171353	0.000000	0.000000	-0.000000	-0.000000	16.557100	2.975700	1.098720	-0.129150	0.851499	0.542235	-1.000000	-1.000000	-1.000000	-1.000000	-1.000000	-1.000000	-1.000000	16.482759	0.000000	-1.000000	-1.000000	330120.000000	1772914596.845619
6451.785000	93605.265000	-11960.415000	-25631.190000	0.000000	0.000000	0.000000	0.000000	17.898348	-7.897746	-27.430530	11.306469	0.000000	0.000000	-0.000000	-0.000000	46.390400	-2.853620	1.419180	-0.141113	0.830198	0.547362	-1.000000	-1.000000	-1.000000	-1.000000	-1.000000	-1.000000	-1.000000	16.482759	0.000000	-1.000000	-1.000000	330121.000000	1772914596.847602
6507.990000	93621.825000	-11857.275000	-25573.005000	0.000000	0.000000	0.000000	0.000000	64.673214	22.113158	12.651763	78.212762	0.000000	0.000000	-0.000000	-0.000000	46.390400	-2.853620	1.419180	-0.141113	0.830198	0.547362	-1.000000	-1.000000	-1.000000	-1.000000	-1.000000	-1.000000	-1.000000	16.482759	0.000000	-1.000000	-1.000000	330122.000000	1772914596.847605
6517.800000	93614.625000	-11848.320000	-25571.655000	0.000000	0.000000	0.000000	0.000000	80.696405	39.315243	39.480885	111.046823	0.000000	0.000000	-0.000000	-0.000000	46.390400	-2.853620	1.419180	-0.141113	0.830198	0.547362	-1.000000	-1.000000	-1.000000	-1.000000	-1.000000	-1.000000	-1.000000	16.482759	0.000000	-1.000000	-1.000000	330123.000000	1772914596.851610
6477.570000	93591.720000	-11899.170000	-25651.395000	0.000000	0.000000	0.000000	0.000000	70.879893	35.878921	61.078745	100.874930	0.000000	0.000000	-0.000000	-0.000000	46.390400	-2.853620	1.419180	-0.141113	0.830198	0.547362	-1.000000	-1.000000	-1.000000	-1.000000	-1.000000	-1.000000	-1.000000	16.482759	0.000000	-1.000000	-1.000000	330124.000000	1772914596.851612
6395.355000	93558.915000	-11998.305000	-25712.595000	0.000000	0.000000	0.000000	0.000000	41.499858	14.481139	67.781351	52.816149	0.000000	0.000000	-0.000000	-0.000000	46.390400	-2.853620	1.419180	-0.141113	0.830198	0.547362	-1.000000	-1.000000	-1.000000	-1.000000	-1.000000	-1.000000	-1.000000	16.482759	0.000000	-1.000000	-1.000000	330125.000000	1772914596.855605
6519.915000	93549.285000	-11908.125000	-25615.260000	0.000000	0.000000	0.000000	0.000000	2.863360	-13.365411	50.244998	-10.709568	0.000000	0.000000	-0.000000	-0.000000	46.390400	-2.853620	1.419180	-0.141113	0.830198	0.547362	-1.000000	-1.000000	-1.000000	-1.000000	-1.000000	-1.000000	-1.000000	16.482759	0.000000	-1.000000	-1.000000	330126.000000	1772914596.855608
6717.555000	93568.995000	-11695.590000	-25396.020000	0.000000	0.000000	0.000000	0.000000	-21.529488	-32.686914	24.178357	-51.616009	0.000000	0.000000	-0.000000	-0.000000	46.390400	-2.853620	1.419180	-0.141113	0.830198	0.547362	-1.000000	-1.000000	-1.000000	-1.000000	-1.000000	-1.000000	-1.000000	16.482759	0.000000	-1.000000	-1.000000	330127.000000	1772914596.859468
6720.975000	93594.645000	-11759.895000	-25466.400000	0.000000	0.000000	0.000000	0.000000	-13.766230	-32.931378	13.473722	-46.071715	0.000000	0.000000	-0.000000	-0.000000	46.390400	-2.853620	1.419180	-0.141113	0.830198	0.547362	-1.000000	-1.000000	-1.000000	-1.000000	-1.000000	-1.000000	-1.000000	16.482759	0.000000	-1.000000	-1.000000	330128.000000	1772914596.859470
6476.040000	93605.445000	-12123.810000	-25819.110000	0.000000	0.000000	0.000000	0.000000	6.413280	-14.966541	7.504481	-20.037852	0.000000	0.000000	-0.000000	-0.000000	46.390400	-2.853620	1.419180	-0.141113	0.830198	0.547362	-1.000000	-1.000000	-1.000000	-1.000000	-1.000000	-1.000000	-1.000000	16.482759	0.000000	-1.000000	-1.000000	330129.000000	1772914596.863592
6707.835000	93636.225000	-12004.920000	-25620.345000	0.000000	0.000000	0.000000	0.000000	3.087357	9.685857	-24.114118	-19.093762	0.000000	0.000000	-0.000000	-0.000000	46.390400	-2.853620	1.419180	-0.141113	0.830198	0.547362	-1.000000	-1.000000	-1.000000	-1.000000	-1.000000	-1.000000	-1.000000	16.482759	0.000000	-1.000000	-1.000000	330130.000000	1772914596.863595
6765.705000	93640.680000	-11875.815000	-25499.160000	0.000000	0.000000	0.000000	0.000000	-20.221939	27.560413	-67.567112	-37.583928	0.000000	0.000000	-0.000000	-0.000000	70.196000	14.115500	17.136980	-0.129394	0.814573	0.524047	-1.000000	-1.000000	-1.000000	-1.000000	-1.000000	-1.000000	-1.000000	16.482759	0.000000	-1.000000	-1.000000	330131.000000	1772914596.867687
6582.645000	93606.975000	-12021.795000	-25668.585000	0.000000	0.000000	0.000000	0.000000	-35.790357	30.094379	-77.408593	-36.472173	0.000000	0.000000	-0.000000	-0.000000	70.196000	14.115500	17.136980	-0.129394	0.814573	0.524047	-1.000000	-1.000000	-1.000000	-1.000000	-1.000000	-1.000000	-1.000000	16.482759	0.000000	-1.000000	-1.000000	330132.000000	1772914596.867690
6489.360000	93577.185000	-12107.115000	-25673.265000	0.000000	0.000000	0.000000	0.000000	-42.662295	15.812716	-47.541548	-13.106489	0.000000	0.000000	-0.000000	-0.000000	70.196000	14.115500	17.136980	-0.129394	0.814573	0.524047	-1.000000	-1.000000	-1.000000	-1.000000	-1.000000	-1.000000	-1.000000	16.482759	0.000000	-1.000000	-1.000000	330133.000000	1772914596.875746
6468.435000	93563.010000	-12045.870000	-25580.205000	0.000000	0.000000	0.000000	0.000000	-51.513120	-8.027755	-8.200191	10.026928	0.000000	0.000000	-0.000000	-0.000000	70.196000	14.115500	17.136980	-0.129394	0.814573	0.524047	-1.000000	-1.000000	-1.000000	-1.000000	-1.000000	-1.000000	-1.000000	16.482759	0.000000	-1.000000	-1.000000	330134.000000	1772914596.875749
6531.165000	93563.955000	-12070.395000	-25536.870000	0.000000	0.000000	0.000000	0.000000	-51.700169	-27.816301	22.390671	27.146876	0.000000	0.000000	-0.000000	-0.000000	70.196000	14.115500	17.136980	-0.129394	0.814573	0.524047	-1.000000	-1.000000	-1.000000	-1.000000	-1.000000	-1.000000	-1.000000	16.482759	0.000000	-1.000000	-1.000000	330135.000000	1772914596.875753
6700.680000	93592.080000	-12064.005000	-25548.930000	0.000000	0.000000	0.000000	0.000000	-23.010726	-31.831199	42.149158	40.206625	0.000000	0.000000	-0.000000	-0.000000	70.196000	14.115500	17.136980	-0.129394	0.814573	0.524047	-1.000000	-1.000000	-1.000000	-1.000000	-1.000000	-1.000000	-1.000000	16.482759	0.000000	-1.000000	-1.000000	330136.000000	1772914596.875756
6884.280000	93638.250000	-11852.055000	-25379.640000	0.000000	0.000000	0.000000	0.000000	37.961497	-17.208565	53.325560	45.296785	0.000000	0.000000	-0.000000	-0.000000	70.196000	14.115500	17.136980	-0.129394	0.814573	0.524047	-1.000000	-1.000000	-1.000000	-1.000000	-1.000000	-1.000000	-1.000000	16.482759	0.000000	-1.000000	-1.000000	330137.000000	1772914596.879481
6918.705000	93661.650000	-12060.495000	-25342.290000	0.000000	0.000000	0.000000	0.000000	105.553385	8.529077	57.275048	41.782748	0.000000	0.000000	-0.000000	-0.000000	70.196000	14.115500	17.136980	-0.129394	0.814573	0.524047	-1.000000	-1.000000	-1.000000	-1.000000	-1.000000	-1.000000	-1.000000	16.482759	0.000000	-1.000000	-1.000000	330138.000000	1772914596.879485
6971.580000	93670.965000	-12033.765000	-25448.265000	0.000000	0.000000	0.000000	0.000000	136.750114	30.991537	43.784896	28.253148	0.000000	0.000000	-0.000000	-0.000000	70.196000	14.115500	17.136980	-0.129394	0.814573	0.524047	-1.000000	-1.000000	-1.000000	-1.000000	-1.000000	-1.000000	-1.000000	16.482759	0.000000	-1.000000	-1.000000	330139.000000	1772914596.885781
7052.670000	93675.645000	-11511.540000	-25214.715000	0.000000	0.000000	0.000000	0.000000	106.528010	37.385587	16.531249	1.678325	0.000000	0.000000	-0.000000	-0.000000	70.196000	14.115500	17.136980	-0.129394	0.814573	0.524047	-1.000000	-1.000000	-1.000000	-1.000000	-1.000000	-1.000000	-1.000000	16.482759	0.000000	-1.000000	-1.000000	330140.000000	1772914596.885785
6906.870000	93631.455000	-11823.300000	-25247.610000	0.000000	0.000000	0.000000	0.000000	26.920207	24.070114	3.188709	-26.109469	0.000000	0.000000	-0.000000	-0.000000	19.685400	13.901860	45.718960	-0.127685	0.965574	0.507567	-1.000000	-1.000000	-1.000000	-1.000000	-1.000000	-1.000000	-1.000000	16.482759	0.000000	-1.000000	-1.000000	330141.000000	1772914596.888615
6609.960000	93579.480000	-12231.405000	-25533.405000	0.000000	0.000000	0.000000	0.000000	-74.121922	-3.254937	-7.886887	-46.139324	0.000000	0.000000	-0.000000	-0.000000	19.685400	13.901860	45.718960	-0.127685	0.965574	0.507567	-1.000000	-1.000000	-1.000000	-1.000000	-1.000000	-1.000000	-1.000000	16.482759	0.000000	-1.000000	-1.000000	330142.000000	1772914596.888618
6704.370000	93587.310000	-11973.870000	-25514.775000	0.000000	0.000000	0.000000	0.000000	-163.851302	-31.995886	-53.364744	-68.392760	0.000000	0.000000	-0.000000	-0.000000	19.685400	13.901860	45.718960	-0.127685	0.965574	0.507567	-1.000000	-1.000000	-1.000000	-1.000000	-1.000000	-1.000000	-1.000000	16.482759	0.000000	-1.000000	-1.000000	330143.000000	1772914596.891690
6857.010000	93606.525000	-12110.445000	-25699.995000	0.000000	0.000000	0.000000	0.000000	-193.608085	-46.118040	-108.008512	-90.718693	0.000000	0.000000	-0.000000	-0.000000	19.685400	13.901860	45.718960	-0.127685	0.965574	0.507567	-1.000000	-1.000000	-1.000000	-1.000000	-1.000000	-1.000000	-1.000000	16.482759	0.000000	-1.000000	-1.000000	330144.000000	1772914596.891692
6781.545000	93621.330000	-12663.945000	-25731.315000	0.000000	0.000000	0.000000	0.000000	-131.647862	-36.190895	-125.701729	-92.166229	0.000000	0.000000	-0.000000	-0.000000	19.685400	13.901860	45.718960	-0.127685	0.965574	0.507567	-1.000000	-1.000000	-1.000000	-1.000000	-1.000000	-1.000000	-1.000000	16.482759	0.000000	-1.000000	-1.000000	330145.000000	1772914596.896688
6847.605000	93658.680000	-12609.315000	-25670.205000	0.000000	0.000000	0.000000	0.000000	-9.848725	-7.521165	-110.379957	-57.476830	0.000000	0.000000	-0.000000	-0.000000	19.685400	13.901860	45.718960	-0.127685	0.965574	0.507567	-1.000000	-1.000000	-1.000000	-1.000000	-1.000000	-1.000000	-1.000000	16.482759	0.000000	-1.000000	-1.000000	330146.000000	1772914596.896690
6741.045000	93659.670000	-12970.980000	-25981.515000	0.000000	0.000000	0.000000	0.000000	100.712325	24.059977	-75.930615	5.719111	0.000000	0.000000	-0.000000	-0.000000	19.685400	13.901860	45.718960	-0.127685	0.965574	0.507567	-1.000000	-1.000000	-1.000000	-1.000000	-1.000000	-1.000000	-1.000000	16.482759	0.000000	-1.000000	-1.000000	330147.000000	1772914596.899864
6746.895000	93649.185000	-13068.450000	-25783.695000	0.000000	0.000000	0.000000	0.000000	147.530410	42.127109	-22.332351	66.972373	0.000000	0.000000	-0.000000	-0.000000	19.685400	13.901860	45.718960	-0.127685	0.965574	0.507567	-1.000000	-1.000000	-1.000000	-1.000000	-1.000000	-1.000000	-1.000000	16.482759	0.000000	-1.000000	-1.000000	330148.000000	1772914596.899867
6896.970000	93643.245000	-12411.360000	-25373.250000	0.000000	0.000000	0.000000	0.000000	127.138691	38.435671	56.855957	113.129114	0.000000	0.000000	-0.000000	-0.000000	19.685400	13.901860	45.718960	-0.127685	0.965574	0.507567	-1.000000	-1.000000	-1.000000	-1.000000	-1.000000	-1.000000	-1.000000	16.482759	0.000000	-1.000000	-1.000000	330149.000000	1772914596.903514
6927.030000	93622.905000	-11912.445000	-25470.675000	0.000000	0.000000	0.000000	0.000000	75.996723	17.177380	179.856601	153.401040	0.000000	0.000000	-0.000000	-0.000000	19.685400	13.901860	45.718960	-0.127685	0.965574	0.507567	-1.000000	-1.000000	-1.000000	-1.000000	-1.000000	-1.000000	-1.000000	16.482759	0.000000	-1.000000	-1.000000	330150.000000	1772914596.903516
6539.805000	93596.670000	-11627.100000	-25749.855000	0.000000	0.000000	0.000000	0.000000	21.312335	-9.452168	324.165881	161.549866	0.000000	0.000000	-0.000000	-0.000000	-48.740440	-30.733640	42.193900	-0.143127	1.072263	0.561034	-1.000000	-1.000000	-1.000000	-1.000000	-1.000000	-1.000000	-1.000000	16.482759	0.000000	-1.000000	-1.000000	330151.000000	1772914596.907536
5933.970000	93571.920000	-11870.595000	-26292.465000	0.000000	0.000000	0.000000	0.000000	-50.694544	-29.531442	388.060846	83.236942	0.000000	0.000000	-0.000000	-0.000000	-48.740440	-30.733640	42.193900	-0.143127	1.072263	0.561034	-1.000000	-1.000000	-1.000000	-1.000000	-1.000000	-1.000000	-1.000000	16.482759	0.000000	-1.000000	-1.000000	330152.000000	1772914596.907539
5959.485000	93604.545000	-11798.685000	-26048.025000	0.000000	0.000000	0.000000	0.000000	-145.742473	-35.308943	274.782032	-73.769133	0.000000	0.000000	-0.000000	-0.000000	-48.740440	-30.733640	42.193900	-0.143127	1.072263	0.561034	-1.000000	-1.000000	-1.000000	-1.000000	-1.000000	-1.000000	-1.000000	16.482759	0.000000	-1.000000	-1.000000	330153.000000	1772914596.911547
6392.790000	93651.795000	-11881.350000	-25889.265000	0.000000	0.000000	0.000000	0.000000	-196.408205	-23.572190	6.688290	-203.245127	0.000000	0.000000	-0.000000	-0.000000	-48.740440	-30.733640	42.193900	-0.143127	1.072263	0.561034	-1.000000	-1.000000	-1.000000	-1.000000	-1.000000	-1.000000	-1.000000	16.482759	0.000000	-1.000000	-1.000000	330154.000000	1772914596.911550
6787.980000	93680.730000	-12116.790000	-25820.235000	0.000000	0.000000	0.000000	0.000000	-112.294428	1.711247	-285.541156	-200.026572	0.000000	0.000000	-0.000000	-0.000000	-48.740440	-30.733640	42.193900	-0.143127	1.072263	0.561034	-1.000000	-1.000000	-1.000000	-1.000000	-1.000000	-1.000000	-1.000000	16.482759	0.000000	-1.000000	-1.000000	330155.000000	1772914596.915525
6785.820000	93676.185000	-12260.745000	-25901.415000	0.000000	0.000000	0.000000	0.000000	92.865265	27.438026	-471.511791	-74.701258	0.000000	0.000000	-0.000000	-0.000000	-48.740440	-30.733640	42.193900	-0.143127	1.072263	0.561034	-1.000000	-1.000000	-1.000000	-1.000000	-1.000000	-1.000000	-1.000000	16.482759	0.000000	-1.000000	-1.000000	330156.000000	1772914596.915528
6665.130000	93639.015000	-12502.575000	-25953.930000	0.000000	0.000000	0.000000	0.000000	279.403231	37.628668	-490.337374	69.058088	0.000000	0.000000	-0.000000	-0.000000	-48.740440	-30.733640	42.193900	-0.143127	1.072263	0.561034	-1.000000	-1.000000	-1.000000	-1.000000	-1.000000	-1.000000	-1.000000	16.482759	0.000000	-1.000000	-1.000000	330157.000000	1772914596.919686
6706.935000	93602.880000	-12545.280000	-25991.775000	0.000000	0.000000	0.000000	0.000000	310.075044	24.799278	-354.907985	139.860401	0.000000	0.000000	-0.000000	-0.000000	-48.740440	-30.733640	42.193900	-0.143127	1.072263	0.561034	-1.000000	-1.000000	-1.000000	-1.000000	-1.000000	-1.000000	-1.000000	16.482759	0.000000	-1.000000	-1.000000	330158.000000	1772914596.919689
6607.215000	93573.495000	-12490.515000	-25934.175000	0.000000	0.000000	0.000000	0.000000	170.742470	-3.839123	-125.018030	120.433413	0.000000	0.000000	-0.000000	-0.000000	-48.740440	-30.733640	42.193900	-0.143127	1.072263	0.561034	-1.000000	-1.000000	-1.000000	-1.000000	-1.000000	-1.000000	-1.000000	16.482759	0.000000	-1.000000	-1.000000	330159.000000	1772914596.923512
6623.595000	93572.460000	-12449.430000	-25995.420000	0.000000	0.000000	0.000000	0.000000	-42.604386	-30.910937	123.044777	51.966657	0.000000	0.000000	-0.000000	-0.000000	-48.740440	-30.733640	42.193900	-0.143127	1.072263	0.561034	-1.000000	-1.000000	-1.000000	-1.000000	-1.000000	-1.000000	-1.000000	16.482759	0.000000	-1.000000	-1.000000	330160.000000	1772914596.923516
6703.110000	93591.495000	-12632.580000	-26017.965000	0.000000	0.000000	0.000000	0.000000	-210.973532	-40.215086	309.300107	-16.991850	0.000000	0.000000	-0.000000	-0.000000	-119.531580	-44.574460	21.302960	-0.085815	0.986570	0.559569	-1.000000	-1.000000	-1.000000	-1.000000	-1.000000	-1.000000	-1.000000	16.482759	0.000000	-1.000000	-1.000000	330161.000000	1772914596.927581
6777.135000	93630.510000	-12500.190000	-25927.920000	0.000000	0.000000	0.000000	0.000000	-260.705061	-26.295740	374.011174	-57.603394	0.000000	0.000000	-0.000000	-0.000000	-119.531580	-44.574460	21.302960	-0.085815	0.986570	0.559569	-1.000000	-1.000000	-1.000000	-1.000000	-1.000000	-1.000000	-1.000000	16.482759	0.000000	-1.000000	-1.000000	330162.000000	1772914596.927584
6796.890000	93667.860000	-12177.720000	-25841.520000	0.000000	0.000000	0.000000	0.000000	-192.976039	3.223323	321.696573	-58.302298	0.000000	0.000000	-0.000000	-0.000000	-119.531580	-44.574460	21.302960	-0.085815	0.986570	0.559569	-1.000000	-1.000000	-1.000000	-1.000000	-1.000000	-1.000000	-1.000000	16.482759	0.000000	-1.000000	-1.000000	330163.000000	1772914596.931524
