Channel1	Channel2	Channel3	Channel4	Channel5	Channel6	Channel7	Channel8	FilteredChannel1	FilteredChannel2	FilteredChannel3	FilteredChannel4	FilteredChannel5	FilteredChannel6	FilteredChannel7	FilteredChannel8	GyroX	GyroY	GyroZ	AccX	AccY	AccZ	PPG1	PPG2	rawPPG1	rawPPG2	rawPPG3	Hr	Hrv	Battery	Trigger	PhysicalTrigger	AutoTrigger	NumMeasurements	Timestamp
3748.545000	90877.410000	-10746.315000	-25213.815000	0.000000	0.000000	0.000000	0.000000	-10.337868	-19.426045	-7.166551	-9.821184	0.000000	0.000000	-0.000000	-0.000000	11.597600	3.189340	2.350040	-0.080688	0.803709	0.594786	-1.000000	-1.000000	-1.000000	-1.000000	-1.000000	-1.000000	-1.000000	13.724138	0.000000	-1.000000	-1.000000	362862.000000	1772914662.350248
3752.370000	90899.460000	-10746.765000	-25211.430000	0.000000	0.000000	0.000000	0.000000	0.159507	2.702738	-4.128834	-3.073144	0.000000	0.000000	-0.000000	-0.000000	11.597600	3.189340	2.350040	-0.080688	0.803709	0.594786	-1.000000	-1.000000	-1.000000	-1.000000	-1.000000	-1.000000	-1.000000	13.724138	0.000000	-1.000000	-1.000000	362863.000000	1772914662.350250
3753.180000	90912.195000	-10742.400000	-25203.195000	0.000000	0.000000	0.000000	0.000000	9.465468	23.143622	0.179671	4.149366	0.000000	0.000000	-0.000000	-0.000000	11.597600	3.189340	2.350040	-0.080688	0.803709	0.594786	-1.000000	-1.000000	-1.000000	-1.000000	-1.000000	-1.000000	-1.000000	13.724138	0.000000	-1.000000	-1.000000	362864.000000	1772914662.354135
3741.255000	90902.835000	-10745.775000	-25206.345000	0.000000	0.000000	0.000000	0.000000	12.553098	31.555631	3.809129	8.581277	0.000000	0.000000	-0.000000	-0.000000	11.597600	3.189340	2.350040	-0.080688	0.803709	0.594786	-1.000000	-1.000000	-1.000000	-1.000000	-1.000000	-1.000000	-1.000000	13.724138	0.000000	-1.000000	-1.000000	362865.000000	1772914662.354138
3732.165000	90878.040000	-10744.065000	-25205.490000	0.000000	0.000000	0.000000	0.000000	8.231579	23.781548	5.338091	8.658663	0.000000	0.000000	-0.000000	-0.000000	11.597600	3.189340	2.350040	-0.080688	0.803709	0.594786	-1.000000	-1.000000	-1.000000	-1.000000	-1.000000	-1.000000	-1.000000	13.724138	0.000000	-1.000000	-1.000000	362866.000000	1772914662.357984
3726.045000	90858.465000	-10743.615000	-25208.685000	0.000000	0.000000	0.000000	0.000000	-0.501157	3.726552	4.494578	4.865478	0.000000	0.000000	-0.000000	-0.000000	11.597600	3.189340	2.350040	-0.080688	0.803709	0.594786	-1.000000	-1.000000	-1.000000	-1.000000	-1.000000	-1.000000	-1.000000	13.724138	0.000000	-1.000000	-1.000000	362867.000000	1772914662.357987
3726.675000	90852.435000	-10747.170000	-25222.005000	0.000000	0.000000	0.000000	0.000000	-8.301686	-18.163773	2.127358	-0.820031	0.000000	0.000000	-0.000000	-0.000000	11.597600	3.189340	2.350040	-0.080688	0.803709	0.594786	-1.000000	-1.000000	-1.000000	-1.000000	-1.000000	-1.000000	-1.000000	13.724138	0.000000	-1.000000	-1.000000	362868.000000	1772914662.361982
3734.280000	90867.015000	-10750.815000	-25225.740000	0.000000	0.000000	0.000000	0.000000	-10.726468	-30.140800	-0.668026	-6.154411	0.000000	0.000000	-0.000000	-0.000000	11.597600	3.189340	2.350040	-0.080688	0.803709	0.594786	-1.000000	-1.000000	-1.000000	-1.000000	-1.000000	-1.000000	-1.000000	13.724138	0.000000	-1.000000	-1.000000	362869.000000	1772914662.361984
3744.945000	90891.450000	-10749.690000	-25220.565000	0.000000	0.000000	0.000000	0.000000	-6.667121	-25.759100	-2.937569	-8.914486	0.000000	0.000000	-0.000000	-0.000000	11.597600	3.189340	2.350040	-0.080688	0.803709	0.594786	-1.000000	-1.000000	-1.000000	-1.000000	-1.000000	-1.000000	-1.000000	13.724138	0.000000	-1.000000	-1.000000	362870.000000	1772914662.366121
3751.695000	90914.040000	-10747.845000	-25213.365000	0.000000	0.000000	0.000000	0.000000	1.297501	-7.668923	-3.772627	-7.341713	0.000000	0.000000	-0.000000	-0.000000	11.597600	3.189340	2.350040	-0.080688	0.803709	0.594786	-1.000000	-1.000000	-1.000000	-1.000000	-1.000000	-1.000000	-1.000000	13.724138	0.000000	-1.000000	-1.000000	362871.000000	1772914662.366124
3758.085000	90921.645000	-10741.230000	-25203.465000	0.000000	0.000000	0.000000	0.000000	8.573505	13.854953	-2.691242	-1.707154	0.000000	0.000000	-0.000000	-0.000000	3.647140	2.792580	1.709120	-0.078369	0.822630	0.585936	-1.000000	-1.000000	-1.000000	-1.000000	-1.000000	-1.000000	-1.000000	13.724138	0.000000	-1.000000	-1.000000	362872.000000	1772914662.370090
3783.375000	90915.480000	-10708.560000	-25174.530000	0.000000	0.000000	0.000000	0.000000	11.749026	26.888423	0.378248	5.654528	0.000000	0.000000	-0.000000	-0.000000	3.647140	2.792580	1.709120	-0.078369	0.822630	0.585936	-1.000000	-1.000000	-1.000000	-1.000000	-1.000000	-1.000000	-1.000000	13.724138	0.000000	-1.000000	-1.000000	362873.000000	1772914662.370092
3773.835000	90901.845000	-10709.595000	-25179.390000	0.000000	0.000000	0.000000	0.000000	10.233501	24.780213	4.833591	11.595423	0.000000	0.000000	-0.000000	-0.000000	3.647140	2.792580	1.709120	-0.078369	0.822630	0.585936	-1.000000	-1.000000	-1.000000	-1.000000	-1.000000	-1.000000	-1.000000	13.724138	0.000000	-1.000000	-1.000000	362874.000000	1772914662.374005
3734.685000	90881.505000	-10740.645000	-25210.260000	0.000000	0.000000	0.000000	0.000000	4.012567	9.559158	7.420472	12.122443	0.000000	0.000000	-0.000000	-0.000000	3.647140	2.792580	1.709120	-0.078369	0.822630	0.585936	-1.000000	-1.000000	-1.000000	-1.000000	-1.000000	-1.000000	-1.000000	13.724138	0.000000	-1.000000	-1.000000	362875.000000	1772914662.374008
3729.465000	90869.220000	-10745.820000	-25218.090000	0.000000	0.000000	0.000000	0.000000	-6.550394	-10.056073	3.893867	4.589969	0.000000	0.000000	-0.000000	-0.000000	3.647140	2.792580	1.709120	-0.078369	0.822630	0.585936	-1.000000	-1.000000	-1.000000	-1.000000	-1.000000	-1.000000	-1.000000	13.724138	0.000000	-1.000000	-1.000000	362876.000000	1772914662.378039
3738.825000	90875.880000	-10739.835000	-25210.080000	0.000000	0.000000	0.000000	0.000000	-16.754157	-23.667822	-4.626104	-7.419212	0.000000	0.000000	-0.000000	-0.000000	3.647140	2.792580	1.709120	-0.078369	0.822630	0.585936	-1.000000	-1.000000	-1.000000	-1.000000	-1.000000	-1.000000	-1.000000	13.724138	0.000000	-1.000000	-1.000000	362877.000000	1772914662.378042
3732.795000	90895.185000	-10753.065000	-25219.890000	0.000000	0.000000	0.000000	0.000000	-19.387928	-24.232289	-11.649946	-15.722861	0.000000	0.000000	-0.000000	-0.000000	3.647140	2.792580	1.709120	-0.078369	0.822630	0.585936	-1.000000	-1.000000	-1.000000	-1.000000	-1.000000	-1.000000	-1.000000	13.724138	0.000000	-1.000000	-1.000000	362878.000000	1772914662.382051
3723.660000	90919.125000	-10773.180000	-25236.495000	0.000000	0.000000	0.000000	0.000000	-12.482478	-11.578704	-12.873767	-15.740742	0.000000	0.000000	-0.000000	-0.000000	3.647140	2.792580	1.709120	-0.078369	0.822630	0.585936	-1.000000	-1.000000	-1.000000	-1.000000	-1.000000	-1.000000	-1.000000	13.724138	0.000000	-1.000000	-1.000000	362879.000000	1772914662.382054
3752.955000	90934.290000	-10747.035000	-25201.305000	0.000000	0.000000	0.000000	0.000000	-0.373332	7.340290	-8.652546	-8.786879	0.000000	0.000000	-0.000000	-0.000000	3.647140	2.792580	1.709120	-0.078369	0.822630	0.585936	-1.000000	-1.000000	-1.000000	-1.000000	-1.000000	-1.000000	-1.000000	13.724138	0.000000	-1.000000	-1.000000	362880.000000	1772914662.386048
3762.270000	90929.340000	-10730.340000	-25182.270000	0.000000	0.000000	0.000000	0.000000	11.780819	22.074147	-0.243115	2.393006	0.000000	0.000000	-0.000000	-0.000000	3.647140	2.792580	1.709120	-0.078369	0.822630	0.585936	-1.000000	-1.000000	-1.000000	-1.000000	-1.000000	-1.000000	-1.000000	13.724138	0.000000	-1.000000	-1.000000	362881.000000	1772914662.386050
3747.060000	90907.920000	-10733.040000	-25191.990000	0.000000	0.000000	0.000000	0.000000	19.502731	24.279569	10.033950	13.871215	0.000000	0.000000	-0.000000	-0.000000	-8.164100	1.724380	-1.236060	-0.076477	0.829954	0.581358	-1.000000	-1.000000	-1.000000	-1.000000	-1.000000	-1.000000	-1.000000	13.724138	0.000000	-1.000000	-1.000000	362882.000000	1772914662.390123
3739.005000	90883.440000	-10735.020000	-25205.265000	0.000000	0.000000	0.000000	0.000000	18.659705	12.492210	16.898169	19.096180	0.000000	0.000000	-0.000000	-0.000000	-8.164100	1.724380	-1.236060	-0.076477	0.829954	0.581358	-1.000000	-1.000000	-1.000000	-1.000000	-1.000000	-1.000000	-1.000000	13.724138	0.000000	-1.000000	-1.000000	362883.000000	1772914662.390126
3740.760000	90866.745000	-10733.265000	-25218.000000	0.000000	0.000000	0.000000	0.000000	9.232782	-6.714340	15.945995	13.819673	0.000000	0.000000	-0.000000	-0.000000	-8.164100	1.724380	-1.236060	-0.076477	0.829954	0.581358	-1.000000	-1.000000	-1.000000	-1.000000	-1.000000	-1.000000	-1.000000	13.724138	0.000000	-1.000000	-1.000000	362884.000000	1772914662.394025
3728.430000	90867.735000	-10746.450000	-25225.155000	0.000000	0.000000	0.000000	0.000000	-3.295948	-22.379626	7.761430	0.972968	0.000000	0.000000	-0.000000	-0.000000	-8.164100	1.724380	-1.236060	-0.076477	0.829954	0.581358	-1.000000	-1.000000	-1.000000	-1.000000	-1.000000	-1.000000	-1.000000	13.724138	0.000000	-1.000000	-1.000000	362885.000000	1772914662.394028
3707.235000	90887.130000	-10776.420000	-25245.990000	0.000000	0.000000	0.000000	0.000000	-12.903272	-25.440665	-3.786914	-11.898740	0.000000	0.000000	-0.000000	-0.000000	-8.164100	1.724380	-1.236060	-0.076477	0.829954	0.581358	-1.000000	-1.000000	-1.000000	-1.000000	-1.000000	-1.000000	-1.000000	13.724138	0.000000	-1.000000	-1.000000	362886.000000	1772914662.398056
3733.785000	90919.080000	-10760.940000	-25222.320000	0.000000	0.000000	0.000000	0.000000	-16.264672	-13.734443	-13.961148	-18.018980	0.000000	0.000000	-0.000000	-0.000000	-8.164100	1.724380	-1.236060	-0.076477	0.829954	0.581358	-1.000000	-1.000000	-1.000000	-1.000000	-1.000000	-1.000000	-1.000000	13.724138	0.000000	-1.000000	-1.000000	362887.000000	1772914662.398059
3765.330000	90945.135000	-10734.345000	-25189.920000	0.000000	0.000000	0.000000	0.000000	-11.431721	6.834309	-17.123457	-13.695558	0.000000	0.000000	-0.000000	-0.000000	-8.164100	1.724380	-1.236060	-0.076477	0.829954	0.581358	-1.000000	-1.000000	-1.000000	-1.000000	-1.000000	-1.000000	-1.000000	13.724138	0.000000	-1.000000	-1.000000	362888.000000	1772914662.402188
3774.060000	90953.595000	-10721.565000	-25178.490000	0.000000	0.000000	0.000000	0.000000	0.630000	25.237694	-10.003035	-0.268268	0.000000	0.000000	-0.000000	-0.000000	-8.164100	1.724380	-1.236060	-0.076477	0.829954	0.581358	-1.000000	-1.000000	-1.000000	-1.000000	-1.000000	-1.000000	-1.000000	13.724138	0.000000	-1.000000	-1.000000	362889.000000	1772914662.402190
3759.570000	90936.135000	-10728.315000	-25189.785000	0.000000	0.000000	0.000000	0.000000	12.927673	30.974524	3.189020	14.168833	0.000000	0.000000	-0.000000	-0.000000	-8.164100	1.724380	-1.236060	-0.076477	0.829954	0.581358	-1.000000	-1.000000	-1.000000	-1.000000	-1.000000	-1.000000	-1.000000	13.724138	0.000000	-1.000000	-1.000000	362890.000000	1772914662.406108
3726.045000	90906.255000	-10751.220000	-25225.245000	0.000000	0.000000	0.000000	0.000000	16.132433	19.825457	12.763191	19.097939	0.000000	0.000000	-0.000000	-0.000000	-8.164100	1.724380	-1.236060	-0.076477	0.829954	0.581358	-1.000000	-1.000000	-1.000000	-1.000000	-1.000000	-1.000000	-1.000000	13.724138	0.000000	-1.000000	-1.000000	362891.000000	1772914662.406111
3685.725000	90878.625000	-10782.405000	-25262.865000	0.000000	0.000000	0.000000	0.000000	6.425694	-3.281244	11.537148	9.758148	0.000000	0.000000	-0.000000	-0.000000	-13.138860	3.830260	-2.853620	-0.074035	0.820982	0.580016	-1.000000	-1.000000	-1.000000	-1.000000	-1.000000	-1.000000	-1.000000	13.724138	0.000000	-1.000000	-1.000000	362892.000000	1772914662.410085
3686.355000	90870.885000	-10780.245000	-25258.680000	0.000000	0.000000	0.000000	0.000000	-10.426189	-26.318805	0.836508	-8.143111	0.000000	0.000000	-0.000000	-0.000000	-13.138860	3.830260	-2.853620	-0.074035	0.820982	0.580016	-1.000000	-1.000000	-1.000000	-1.000000	-1.000000	-1.000000	-1.000000	13.724138	0.000000	-1.000000	-1.000000	362893.000000	1772914662.410088
3718.260000	90885.105000	-10758.510000	-25230.015000	0.000000	0.000000	0.000000	0.000000	-21.784095	-36.553244	-10.044466	-21.229119	0.000000	0.000000	-0.000000	-0.000000	-13.138860	3.830260	-2.853620	-0.074035	0.820982	0.580016	-1.000000	-1.000000	-1.000000	-1.000000	-1.000000	-1.000000	-1.000000	13.724138	0.000000	-1.000000	-1.000000	362894.000000	1772914662.414145
3748.500000	90916.245000	-10739.430000	-25202.790000	0.000000	0.000000	0.000000	0.000000	-17.428825	-27.762289	-11.533329	-18.685849	0.000000	0.000000	-0.000000	-0.000000	-13.138860	3.830260	-2.853620	-0.074035	0.820982	0.580016	-1.000000	-1.000000	-1.000000	-1.000000	-1.000000	-1.000000	-1.000000	13.724138	0.000000	-1.000000	-1.000000	362895.000000	1772914662.414148
3761.505000	90944.370000	-10733.400000	-25189.110000	0.000000	0.000000	0.000000	0.000000	1.080291	-4.019261	-2.417816	-1.730441	0.000000	0.000000	-0.000000	-0.000000	-13.138860	3.830260	-2.853620	-0.074035	0.820982	0.580016	-1.000000	-1.000000	-1.000000	-1.000000	-1.000000	-1.000000	-1.000000	13.724138	0.000000	-1.000000	-1.000000	362896.000000	1772914662.422121
3752.145000	90956.745000	-10742.715000	-25191.630000	0.000000	0.000000	0.000000	0.000000	20.852877	22.235724	9.465618	17.444330	0.000000	0.000000	-0.000000	-0.000000	-13.138860	3.830260	-2.853620	-0.074035	0.820982	0.580016	-1.000000	-1.000000	-1.000000	-1.000000	-1.000000	-1.000000	-1.000000	13.724138	0.000000	-1.000000	-1.000000	362897.000000	1772914662.422124
3758.130000	90946.305000	-10728.990000	-25182.270000	0.000000	0.000000	0.000000	0.000000	28.395809	36.929673	15.046250	26.050814	0.000000	0.000000	-0.000000	-0.000000	-13.138860	3.830260	-2.853620	-0.074035	0.820982	0.580016	-1.000000	-1.000000	-1.000000	-1.000000	-1.000000	-1.000000	-1.000000	13.724138	0.000000	-1.000000	-1.000000	362898.000000	1772914662.422129
3748.635000	90919.935000	-10728.900000	-25192.260000	0.000000	0.000000	0.000000	0.000000	19.953976	32.154761	11.692276	19.920940	0.000000	0.000000	-0.000000	-0.000000	-13.138860	3.830260	-2.853620	-0.074035	0.820982	0.580016	-1.000000	-1.000000	-1.000000	-1.000000	-1.000000	-1.000000	-1.000000	13.724138	0.000000	-1.000000	-1.000000	362899.000000	1772914662.422131
3702.465000	90887.445000	-10770.030000	-25237.755000	0.000000	0.000000	0.000000	0.000000	1.275970	10.453999	2.297198	3.260542	0.000000	0.000000	-0.000000	-0.000000	-13.138860	3.830260	-2.853620	-0.074035	0.820982	0.580016	-1.000000	-1.000000	-1.000000	-1.000000	-1.000000	-1.000000	-1.000000	13.724138	0.000000	-1.000000	-1.000000	362900.000000	1772914662.428837
3698.775000	90873.405000	-10772.280000	-25243.605000	0.000000	0.000000	0.000000	0.000000	-18.634121	-16.621314	-9.274413	-16.211324	0.000000	0.000000	-0.000000	-0.000000	-13.138860	3.830260	-2.853620	-0.074035	0.820982	0.580016	-1.000000	-1.000000	-1.000000	-1.000000	-1.000000	-1.000000	-1.000000	13.724138	0.000000	-1.000000	-1.000000	362901.000000	1772914662.428841
3704.625000	90883.035000	-10772.280000	-25237.080000	0.000000	0.000000	0.000000	0.000000	-30.351825	-34.529204	-17.965201	-29.109900	0.000000	0.000000	-0.000000	-0.000000	-22.996820	5.661460	1.983800	-0.075805	0.819578	0.579039	-1.000000	-1.000000	-1.000000	-1.000000	-1.000000	-1.000000	-1.000000	13.724138	0.000000	-1.000000	-1.000000	362902.000000	1772914662.430089
3732.705000	90911.205000	-10757.475000	-25226.730000	0.000000	0.000000	0.000000	0.000000	-26.971113	-33.486572	-18.208934	-27.838794	0.000000	0.000000	-0.000000	-0.000000	-22.996820	5.661460	1.983800	-0.075805	0.819578	0.579039	-1.000000	-1.000000	-1.000000	-1.000000	-1.000000	-1.000000	-1.000000	13.724138	0.000000	-1.000000	-1.000000	362903.000000	1772914662.430092
3765.105000	90945.765000	-10736.280000	-25212.195000	0.000000	0.000000	0.000000	0.000000	-9.053909	-14.000069	-8.531288	-12.591480	0.000000	0.000000	-0.000000	-0.000000	-22.996820	5.661460	1.983800	-0.075805	0.819578	0.579039	-1.000000	-1.000000	-1.000000	-1.000000	-1.000000	-1.000000	-1.000000	13.724138	0.000000	-1.000000	-1.000000	362904.000000	1772914662.434081
3768.120000	90967.770000	-10734.525000	-25198.920000	0.000000	0.000000	0.000000	0.000000	14.271618	13.327184	6.364903	8.382980	0.000000	0.000000	-0.000000	-0.000000	-22.996820	5.661460	1.983800	-0.075805	0.819578	0.579039	-1.000000	-1.000000	-1.000000	-1.000000	-1.000000	-1.000000	-1.000000	13.724138	0.000000	-1.000000	-1.000000	362905.000000	1772914662.434084
3754.350000	90964.260000	-10742.445000	-25201.575000	0.000000	0.000000	0.000000	0.000000	29.732480	33.560253	17.950432	24.378138	0.000000	0.000000	-0.000000	-0.000000	-22.996820	5.661460	1.983800	-0.075805	0.819578	0.579039	-1.000000	-1.000000	-1.000000	-1.000000	-1.000000	-1.000000	-1.000000	13.724138	0.000000	-1.000000	-1.000000	362906.000000	1772914662.440146
3739.770000	90940.860000	-10744.380000	-25205.895000	0.000000	0.000000	0.000000	0.000000	28.252113	35.490011	19.506945	28.026957	0.000000	0.000000	-0.000000	-0.000000	-22.996820	5.661460	1.983800	-0.075805	0.819578	0.579039	-1.000000	-1.000000	-1.000000	-1.000000	-1.000000	-1.000000	-1.000000	13.724138	0.000000	-1.000000	-1.000000	362907.000000	1772914662.440149
3721.320000	90908.775000	-10753.875000	-25220.790000	0.000000	0.000000	0.000000	0.000000	11.386681	17.847999	10.990006	18.638147	0.000000	0.000000	-0.000000	-0.000000	-22.996820	5.661460	1.983800	-0.075805	0.819578	0.579039	-1.000000	-1.000000	-1.000000	-1.000000	-1.000000	-1.000000	-1.000000	13.724138	0.000000	-1.000000	-1.000000	362908.000000	1772914662.442054
3691.035000	90884.880000	-10780.200000	-25249.905000	0.000000	0.000000	0.000000	0.000000	-10.787762	-9.914623	-2.260178	1.491609	0.000000	0.000000	-0.000000	-0.000000	-22.996820	5.661460	1.983800	-0.075805	0.819578	0.579039	-1.000000	-1.000000	-1.000000	-1.000000	-1.000000	-1.000000	-1.000000	13.724138	0.000000	-1.000000	-1.000000	362909.000000	1772914662.442056
3697.695000	90884.475000	-10772.280000	-25237.215000	0.000000	0.000000	0.000000	0.000000	-26.763378	-32.813764	-13.741788	-15.146884	0.000000	0.000000	-0.000000	-0.000000	-22.996820	5.661460	1.983800	-0.075805	0.819578	0.579039	-1.000000	-1.000000	-1.000000	-1.000000	-1.000000	-1.000000	-1.000000	13.724138	0.000000	-1.000000	-1.000000	362910.000000	1772914662.446027
3715.515000	90907.965000	-10756.305000	-25207.965000	0.000000	0.000000	0.000000	0.000000	-28.573967	-38.375151	-17.712549	-22.524119	0.000000	0.000000	-0.000000	-0.000000	-22.996820	5.661460	1.983800	-0.075805	0.819578	0.579039	-1.000000	-1.000000	-1.000000	-1.000000	-1.000000	-1.000000	-1.000000	13.724138	0.000000	-1.000000	-1.000000	362911.000000	1772914662.446030
3741.165000	90939.465000	-10738.170000	-25176.105000	0.000000	0.000000	0.000000	0.000000	-15.005016	-23.384144	-11.504208	-15.822014	0.000000	0.000000	-0.000000	-0.000000	-34.685980	6.058220	2.533160	-0.080139	0.820921	0.578917	-1.000000	-1.000000	-1.000000	-1.000000	-1.000000	-1.000000	-1.000000	13.724138	0.000000	-1.000000	-1.000000	362912.000000	1772914662.450215
3755.610000	90968.220000	-10731.240000	-25153.110000	0.000000	0.000000	0.000000	0.000000	6.890388	4.224300	1.493888	1.130631	0.000000	0.000000	-0.000000	-0.000000	-34.685980	6.058220	2.533160	-0.080139	0.820921	0.578917	-1.000000	-1.000000	-1.000000	-1.000000	-1.000000	-1.000000	-1.000000	13.724138	0.000000	-1.000000	-1.000000	362913.000000	1772914662.450219
3754.260000	90977.580000	-10730.520000	-25150.680000	0.000000	0.000000	0.000000	0.000000	25.148525	29.750534	13.312659	17.466922	0.000000	0.000000	-0.000000	-0.000000	-34.685980	6.058220	2.533160	-0.080139	0.820921	0.578917	-1.000000	-1.000000	-1.000000	-1.000000	-1.000000	-1.000000	-1.000000	13.724138	0.000000	-1.000000	-1.000000	362914.000000	1772914662.454130
3747.465000	90963.270000	-10739.115000	-25187.895000	0.000000	0.000000	0.000000	0.000000	29.953493	39.732845	16.927127	22.113514	0.000000	0.000000	-0.000000	-0.000000	-34.685980	6.058220	2.533160	-0.080139	0.820921	0.578917	-1.000000	-1.000000	-1.000000	-1.000000	-1.000000	-1.000000	-1.000000	13.724138	0.000000	-1.000000	-1.000000	362915.000000	1772914662.454133
3707.325000	90928.620000	-10770.570000	-25231.635000	0.000000	0.000000	0.000000	0.000000	18.970858	28.847450	10.298488	10.423898	0.000000	0.000000	-0.000000	-0.000000	-34.685980	6.058220	2.533160	-0.080139	0.820921	0.578917	-1.000000	-1.000000	-1.000000	-1.000000	-1.000000	-1.000000	-1.000000	13.724138	0.000000	-1.000000	-1.000000	362916.000000	1772914662.458056
3703.950000	90900.045000	-10767.870000	-25261.335000	0.000000	0.000000	0.000000	0.000000	-1.920873	2.587944	-2.874311	-12.068663	0.000000	0.000000	-0.000000	-0.000000	-34.685980	6.058220	2.533160	-0.080139	0.820921	0.578917	-1.000000	-1.000000	-1.000000	-1.000000	-1.000000	-1.000000	-1.000000	13.724138	0.000000	-1.000000	-1.000000	362917.000000	1772914662.458058
3731.085000	90893.610000	-10735.650000	-25241.805000	0.000000	0.000000	0.000000	0.000000	-20.724242	-25.193081	-14.025838	-31.285192	0.000000	0.000000	-0.000000	-0.000000	-34.685980	6.058220	2.533160	-0.080139	0.820921	0.578917	-1.000000	-1.000000	-1.000000	-1.000000	-1.000000	-1.000000	-1.000000	13.724138	0.000000	-1.000000	-1.000000	362918.000000	1772914662.463705
3734.820000	90909.315000	-10738.215000	-25222.050000	0.000000	0.000000	0.000000	0.000000	-26.012015	-39.395200	-15.110182	-33.222709	0.000000	0.000000	-0.000000	-0.000000	-34.685980	6.058220	2.533160	-0.080139	0.820921	0.578917	-1.000000	-1.000000	-1.000000	-1.000000	-1.000000	-1.000000	-1.000000	13.724138	0.000000	-1.000000	-1.000000	362919.000000	1772914662.463708
3717.810000	90936.180000	-10768.860000	-25240.005000	0.000000	0.000000	0.000000	0.000000	-16.590825	-32.326333	-7.000853	-15.512811	0.000000	0.000000	-0.000000	-0.000000	-34.685980	6.058220	2.533160	-0.080139	0.820921	0.578917	-1.000000	-1.000000	-1.000000	-1.000000	-1.000000	-1.000000	-1.000000	13.724138	0.000000	-1.000000	-1.000000	362920.000000	1772914662.466129
3730.230000	90964.890000	-10764.000000	-25231.320000	0.000000	0.000000	0.000000	0.000000	-1.554489	-8.224459	1.736752	9.997293	0.000000	0.000000	-0.000000	-0.000000	-34.685980	6.058220	2.533160	-0.080139	0.820921	0.578917	-1.000000	-1.000000	-1.000000	-1.000000	-1.000000	-1.000000	-1.000000	13.724138	0.000000	-1.000000	-1.000000	362921.000000	1772914662.466131
3742.605000	90977.850000	-10749.735000	-25214.130000	0.000000	0.000000	0.000000	0.000000	10.086545	19.539917	5.681703	28.687758	0.000000	0.000000	-0.000000	-0.000000	-42.071820	7.263760	-1.419180	-0.083862	0.816709	0.583617	-1.000000	-1.000000	-1.000000	-1.000000	-1.000000	-1.000000	-1.000000	13.724138	0.000000	-1.000000	-1.000000	362922.000000	1772914662.470254
3732.930000	90967.725000	-10749.420000	-25217.370000	0.000000	0.000000	0.000000	0.000000	14.957870	36.124472	6.309930	33.802245	0.000000	0.000000	-0.000000	-0.000000	-42.071820	7.263760	-1.419180	-0.083862	0.816709	0.583617	-1.000000	-1.000000	-1.000000	-1.000000	-1.000000	-1.000000	-1.000000	13.724138	0.000000	-1.000000	-1.000000	362923.000000	1772914662.470257
3715.020000	90946.035000	-10754.145000	-25228.395000	0.000000	0.000000	0.000000	0.000000	12.670094	33.114683	5.988658	25.927864	0.000000	0.000000	-0.000000	-0.000000	-42.071820	7.263760	-1.419180	-0.083862	0.816709	0.583617	-1.000000	-1.000000	-1.000000	-1.000000	-1.000000	-1.000000	-1.000000	13.724138	0.000000	-1.000000	-1.000000	362924.000000	1772914662.474161
3727.575000	90922.320000	-10733.490000	-25214.265000	0.000000	0.000000	0.000000	0.000000	4.909605	12.864540	5.035844	9.940221	0.000000	0.000000	-0.000000	-0.000000	-42.071820	7.263760	-1.419180	-0.083862	0.816709	0.583617	-1.000000	-1.000000	-1.000000	-1.000000	-1.000000	-1.000000	-1.000000	13.724138	0.000000	-1.000000	-1.000000	362925.000000	1772914662.474163
3723.300000	90906.390000	-10735.110000	-25215.255000	0.000000	0.000000	0.000000	0.000000	-3.524279	-13.216854	3.691046	-6.420338	-0.000000	0.000000	-0.000000	-0.000000	-42.071820	7.263760	-1.419180	-0.083862	0.816709	0.583617	-1.000000	-1.000000	-1.000000	-1.000000	-1.000000	-1.000000	-1.000000	13.724138	0.000000	-1.000000	-1.000000	362926.000000	1772914662.478061
3697.065000	90915.705000	-10765.530000	-25238.295000	0.000000	0.000000	0.000000	0.000000	-8.418744	-31.227717	1.525653	-17.020448	-0.000000	0.000000	-0.000000	-0.000000	-42.071820	7.263760	-1.419180	-0.083862	0.816709	0.583617	-1.000000	-1.000000	-1.000000	-1.000000	-1.000000	-1.000000	-1.000000	13.724138	0.000000	-1.000000	-1.000000	362927.000000	1772914662.478064
3682.080000	90943.380000	-10785.105000	-25253.325000	0.000000	0.000000	0.000000	0.000000	-9.808057	-31.898802	-3.229485	-20.971459	-0.000000	0.000000	-0.000000	-0.000000	-42.071820	7.263760	-1.419180	-0.083862	0.816709	0.583617	-1.000000	-1.000000	-1.000000	-1.000000	-1.000000	-1.000000	-1.000000	13.724138	0.000000	-1.000000	-1.000000	362928.000000	1772914662.482211
3725.190000	90978.210000	-10750.680000	-25216.245000	0.000000	0.000000	0.000000	0.000000	-8.301913	-15.108828	-9.211507	-19.138809	-0.000000	0.000000	-0.000000	-0.000000	-42.071820	7.263760	-1.419180	-0.083862	0.816709	0.583617	-1.000000	-1.000000	-1.000000	-1.000000	-1.000000	-1.000000	-1.000000	13.724138	0.000000	-1.000000	-1.000000	362929.000000	1772914662.482214
3749.310000	90999.405000	-10732.590000	-25195.725000	0.000000	0.000000	0.000000	0.000000	-1.846702	9.928208	-10.315409	-10.626589	-0.000000	0.000000	-0.000000	-0.000000	-42.071820	7.263760	-1.419180	-0.083862	0.816709	0.583617	-1.000000	-1.000000	-1.000000	-1.000000	-1.000000	-1.000000	-1.000000	13.724138	0.000000	-1.000000	-1.000000	362930.000000	1772914662.486076
3740.175000	90995.355000	-10735.605000	-25203.285000	0.000000	0.000000	0.000000	0.000000	8.796470	29.313306	-3.427166	2.862766	-0.000000	0.000000	-0.000000	-0.000000	-42.071820	7.263760	-1.419180	-0.083862	0.816709	0.583617	-1.000000	-1.000000	-1.000000	-1.000000	-1.000000	-1.000000	-1.000000	13.724138	0.000000	-1.000000	-1.000000	362931.000000	1772914662.486078
3722.580000	90967.995000	-10738.845000	-25216.605000	0.000000	0.000000	0.000000	0.000000	16.189846	31.927166	6.225266	13.770579	-0.000000	0.000000	-0.000000	-0.000000	-44.727060	4.700080	1.922760	-0.085998	0.805479	0.594908	-1.000000	-1.000000	-1.000000	-1.000000	-1.000000	-1.000000	-1.000000	13.724138	0.000000	-1.000000	-1.000000	362932.000000	1772914662.490141
3712.725000	90938.835000	-10735.200000	-25218.360000	0.000000	0.000000	0.000000	0.000000	13.334367	15.907148	11.066924	15.112323	-0.000000	0.000000	-0.000000	-0.000000	-44.727060	4.700080	1.922760	-0.085998	0.805479	0.594908	-1.000000	-1.000000	-1.000000	-1.000000	-1.000000	-1.000000	-1.000000	13.724138	0.000000	-1.000000	-1.000000	362933.000000	1772914662.490144
3693.870000	90920.520000	-10745.595000	-25234.155000	0.000000	0.000000	0.000000	0.000000	1.345056	-9.794447	8.521301	7.247101	-0.000000	0.000000	-0.000000	-0.000000	-44.727060	4.700080	1.922760	-0.085998	0.805479	0.594908	-1.000000	-1.000000	-1.000000	-1.000000	-1.000000	-1.000000	-1.000000	13.724138	0.000000	-1.000000	-1.000000	362934.000000	1772914662.493984
3674.430000	90920.070000	-10770.480000	-25256.925000	0.000000	0.000000	0.000000	0.000000	-12.394550	-30.522629	0.781811	-4.091983	-0.000000	0.000000	-0.000000	-0.000000	-44.727060	4.700080	1.922760	-0.085998	0.805479	0.594908	-1.000000	-1.000000	-1.000000	-1.000000	-1.000000	-1.000000	-1.000000	13.724138	0.000000	-1.000000	-1.000000	362935.000000	1772914662.493988
3693.330000	90942.435000	-10759.635000	-25237.755000	0.000000	0.000000	0.000000	0.000000	-19.977468	-34.584498	-7.916638	-12.466481	-0.000000	0.000000	-0.000000	-0.000000	-44.727060	4.700080	1.922760	-0.085998	0.805479	0.594908	-1.000000	-1.000000	-1.000000	-1.000000	-1.000000	-1.000000	-1.000000	13.724138	0.000000	-1.000000	-1.000000	362936.000000	1772914662.499418
3730.770000	90975.375000	-10728.855000	-25201.080000	0.000000	0.000000	0.000000	0.000000	-16.127651	-19.636018	-11.888705	-12.347016	-0.000000	0.000000	-0.000000	-0.000000	-44.727060	4.700080	1.922760	-0.085998	0.805479	0.594908	-1.000000	-1.000000	-1.000000	-1.000000	-1.000000	-1.000000	-1.000000	13.724138	0.000000	-1.000000	-1.000000	362937.000000	1772914662.499420
3737.295000	91000.485000	-10731.105000	-25200.180000	0.000000	0.000000	0.000000	0.000000	-1.466826	6.373038	-7.375314	-2.455579	-0.000000	0.000000	-0.000000	-0.000000	-44.727060	4.700080	1.922760	-0.085998	0.805479	0.594908	-1.000000	-1.000000	-1.000000	-1.000000	-1.000000	-1.000000	-1.000000	13.724138	0.000000	-1.000000	-1.000000	362938.000000	1772914662.502060
3733.965000	91003.455000	-10732.815000	-25202.070000	0.000000	0.000000	0.000000	0.000000	15.298430	29.440621	2.357187	10.582731	-0.000000	0.000000	-0.000000	-0.000000	-44.727060	4.700080	1.922760	-0.085998	0.805479	0.594908	-1.000000	-1.000000	-1.000000	-1.000000	-1.000000	-1.000000	-1.000000	13.724138	0.000000	-1.000000	-1.000000	362939.000000	1772914662.502063
3724.785000	90988.605000	-10729.485000	-25203.645000	0.000000	0.000000	0.000000	0.000000	22.959153	37.016925	9.712141	17.075165	-0.000000	0.000000	-0.000000	-0.000000	-44.727060	4.700080	1.922760	-0.085998	0.805479	0.594908	-1.000000	-1.000000	-1.000000	-1.000000	-1.000000	-1.000000	-1.000000	13.724138	0.000000	-1.000000	-1.000000	362940.000000	1772914662.506033
3707.820000	90959.805000	-10732.680000	-25212.960000	0.000000	0.000000	0.000000	0.000000	16.802965	24.979706	10.284687	12.916069	-0.000000	0.000000	-0.000000	-0.000000	-44.727060	4.700080	1.922760	-0.085998	0.805479	0.594908	-1.000000	-1.000000	-1.000000	-1.000000	-1.000000	-1.000000	-1.000000	13.724138	0.000000	-1.000000	-1.000000	362941.000000	1772914662.506036
3696.795000	90932.130000	-10735.560000	-25220.655000	0.000000	0.000000	0.000000	0.000000	1.209114	-0.232761	5.062711	1.446508	-0.000000	0.000000	-0.000000	-0.000000	-35.403200	5.920880	1.831200	-0.088074	0.795347	0.612364	-1.000000	-1.000000	-1.000000	-1.000000	-1.000000	-1.000000	-1.000000	13.724138	0.000000	-1.000000	-1.000000	362942.000000	1772914662.510111
3687.435000	90924.840000	-10745.145000	-25233.255000	0.000000	0.000000	0.000000	0.000000	-14.506930	-25.301437	-2.277834	-10.584242	-0.000000	0.000000	-0.000000	-0.000000	-35.403200	5.920880	1.831200	-0.088074	0.795347	0.612364	-1.000000	-1.000000	-1.000000	-1.000000	-1.000000	-1.000000	-1.000000	13.724138	0.000000	-1.000000	-1.000000	362943.000000	1772914662.510115
3685.905000	90932.085000	-10755.315000	-25240.995000	0.000000	0.000000	0.000000	0.000000	-22.141531	-37.101420	-8.226450	-17.455764	-0.000000	0.000000	-0.000000	-0.000000	-35.403200	5.920880	1.831200	-0.088074	0.795347	0.612364	-1.000000	-1.000000	-1.000000	-1.000000	-1.000000	-1.000000	-1.000000	13.724138	0.000000	-1.000000	-1.000000	362944.000000	1772914662.514089
3688.155000	90957.105000	-10768.590000	-25244.460000	0.000000	0.000000	0.000000	0.000000	-18.739257	-29.670543	-10.854782	-16.772883	-0.000000	0.000000	-0.000000	-0.000000	-35.403200	5.920880	1.831200	-0.088074	0.795347	0.612364	-1.000000	-1.000000	-1.000000	-1.000000	-1.000000	-1.000000	-1.000000	13.724138	0.000000	-1.000000	-1.000000	362945.000000	1772914662.514093
3717.225000	90985.905000	-10745.865000	-25215.165000	0.000000	0.000000	0.000000	0.000000	-6.658535	-7.117680	-9.281912	-9.019840	-0.000000	0.000000	-0.000000	-0.000000	-35.403200	5.920880	1.831200	-0.088074	0.795347	0.612364	-1.000000	-1.000000	-1.000000	-1.000000	-1.000000	-1.000000	-1.000000	13.724138	0.000000	-1.000000	-1.000000	362946.000000	1772914662.518127
3741.345000	91001.520000	-10722.330000	-25190.730000	0.000000	0.000000	0.000000	0.000000	8.961386	18.918389	-2.770369	3.638576	-0.000000	0.000000	-0.000000	-0.000000	-35.403200	5.920880	1.831200	-0.088074	0.795347	0.612364	-1.000000	-1.000000	-1.000000	-1.000000	-1.000000	-1.000000	-1.000000	13.724138	0.000000	-1.000000	-1.000000	362947.000000	1772914662.518130
3730.005000	90989.685000	-10727.055000	-25198.155000	0.000000	0.000000	0.000000	0.000000	21.414391	35.063437	7.119008	16.409209	-0.000000	0.000000	-0.000000	-0.000000	-35.403200	5.920880	1.831200	-0.088074	0.795347	0.612364	-1.000000	-1.000000	-1.000000	-1.000000	-1.000000	-1.000000	-1.000000	13.724138	0.000000	-1.000000	-1.000000	362948.000000	1772914662.524581
3704.760000	90960.570000	-10740.465000	-25220.655000	0.000000	0.000000	0.000000	0.000000	23.497822	32.737222	14.515267	21.788914	-0.000000	0.000000	-0.000000	-0.000000	-35.403200	5.920880	1.831200	-0.088074	0.795347	0.612364	-1.000000	-1.000000	-1.000000	-1.000000	-1.000000	-1.000000	-1.000000	13.724138	0.000000	-1.000000	-1.000000	362949.000000	1772914662.524583
3687.660000	90929.745000	-10748.745000	-25236.360000	0.000000	0.000000	0.000000	0.000000	12.432589	12.968426	13.611889	14.977844	-0.000000	0.000000	-0.000000	-0.000000	-35.403200	5.920880	1.831200	-0.088074	0.795347	0.612364	-1.000000	-1.000000	-1.000000	-1.000000	-1.000000	-1.000000	-1.000000	13.724138	0.000000	-1.000000	-1.000000	362950.000000	1772914662.527521
3683.925000	90916.515000	-10750.095000	-25236.180000	0.000000	0.000000	0.000000	0.000000	-5.876541	-13.521379	4.799101	-0.409126	-0.000000	0.000000	-0.000000	-0.000000	-35.403200	5.920880	1.831200	-0.088074	0.795347	0.612364	-1.000000	-1.000000	-1.000000	-1.000000	-1.000000	-1.000000	-1.000000	13.724138	0.000000	-1.000000	-1.000000	362951.000000	1772914662.527524
3697.830000	90925.245000	-10742.220000	-25222.770000	0.000000	0.000000	0.000000	0.000000	-20.084352	-32.013415	-5.609140	-14.244273	-0.000000	0.000000	-0.000000	-0.000000	-21.211400	4.944240	-0.030520	-0.086242	0.786070	0.628233	-1.000000	-1.000000	-1.000000	-1.000000	-1.000000	-1.000000	-1.000000	13.724138	0.000000	-1.000000	-1.000000	362952.000000	1772914662.531043
3720.825000	90954.180000	-10730.790000	-25204.230000	0.000000	0.000000	0.000000	0.000000	-21.503906	-32.206928	-10.853990	-17.768593	-0.000000	0.000000	-0.000000	-0.000000	-21.211400	4.944240	-0.030520	-0.086242	0.786070	0.628233	-1.000000	-1.000000	-1.000000	-1.000000	-1.000000	-1.000000	-1.000000	13.724138	0.000000	-1.000000	-1.000000	362953.000000	1772914662.531046
3736.935000	90979.650000	-10726.965000	-25195.230000	0.000000	0.000000	0.000000	0.000000	-9.918589	-14.237746	-8.643408	-9.913011	-0.000000	0.000000	-0.000000	-0.000000	-21.211400	4.944240	-0.030520	-0.086242	0.786070	0.628233	-1.000000	-1.000000	-1.000000	-1.000000	-1.000000	-1.000000	-1.000000	13.724138	0.000000	-1.000000	-1.000000	362954.000000	1772914662.536063
3742.830000	90999.135000	-10725.840000	-25194.015000	0.000000	0.000000	0.000000	0.000000	6.680970	11.442037	-2.039427	2.715696	-0.000000	0.000000	-0.000000	-0.000000	-21.211400	4.944240	-0.030520	-0.086242	0.786070	0.628233	-1.000000	-1.000000	-1.000000	-1.000000	-1.000000	-1.000000	-1.000000	13.724138	0.000000	-1.000000	-1.000000	362955.000000	1772914662.536066
3729.510000	90999.765000	-10733.130000	-25199.280000	0.000000	0.000000	0.000000	0.000000	17.660149	30.442199	3.634790	11.358207	-0.000000	0.000000	-0.000000	-0.000000	-21.211400	4.944240	-0.030520	-0.086242	0.786070	0.628233	-1.000000	-1.000000	-1.000000	-1.000000	-1.000000	-1.000000	-1.000000	13.724138	0.000000	-1.000000	-1.000000	362956.000000	1772914662.539239
3704.130000	90975.105000	-10747.890000	-25217.325000	0.000000	0.000000	0.000000	0.000000	16.354380	32.553674	4.648547	11.040371	-0.000000	0.000000	-0.000000	-0.000000	-21.211400	4.944240	-0.030520	-0.086242	0.786070	0.628233	-1.000000	-1.000000	-1.000000	-1.000000	-1.000000	-1.000000	-1.000000	13.724138	0.000000	-1.000000	-1.000000	362957.000000	1772914662.539242
3713.760000	90944.280000	-10728.450000	-25207.200000	0.000000	0.000000	0.000000	0.000000	4.323652	16.688706	1.332869	3.167343	-0.000000	0.000000	-0.000000	-0.000000	-21.211400	4.944240	-0.030520	-0.086242	0.786070	0.628233	-1.000000	-1.000000	-1.000000	-1.000000	-1.000000	-1.000000	-1.000000	13.724138	0.000000	-1.000000	-1.000000	362958.000000	1772914662.542767
3707.010000	90921.735000	-10732.050000	-25212.420000	0.000000	0.000000	0.000000	0.000000	-9.575655	-8.731611	-2.316392	-5.972292	-0.000000	0.000000	-0.000000	-0.000000	-21.211400	4.944240	-0.030520	-0.086242	0.786070	0.628233	-1.000000	-1.000000	-1.000000	-1.000000	-1.000000	-1.000000	-1.000000	13.724138	0.000000	-1.000000	-1.000000	362959.000000	1772914662.542770
3693.870000	90919.935000	-10751.805000	-25227.090000	0.000000	0.000000	0.000000	0.000000	-16.734098	-29.986376	-3.413452	-10.724980	-0.000000	0.000000	-0.000000	-0.000000	-21.211400	4.944240	-0.030520	-0.086242	0.786070	0.628233	-1.000000	-1.000000	-1.000000	-1.000000	-1.000000	-1.000000	-1.000000	13.724138	0.000000	-1.000000	-1.000000	362960.000000	1772914662.546161
3697.245000	90944.325000	-10759.815000	-25231.455000	0.000000	0.000000	0.000000	0.000000	-14.963024	-35.327902	-3.091018	-10.126686	-0.000000	0.000000	-0.000000	-0.000000	-21.211400	4.944240	-0.030520	-0.086242	0.786070	0.628233	-1.000000	-1.000000	-1.000000	-1.000000	-1.000000	-1.000000	-1.000000	13.724138	0.000000	-1.000000	-1.000000	362961.000000	1772914662.546164
3721.365000	90977.535000	-10746.270000	-25211.970000	0.000000	0.000000	0.000000	0.000000	-6.553239	-21.402088	-2.673242	-5.658350	-0.000000	0.000000	-0.000000	-0.000000	-4.730600	5.569900	1.709120	-0.080200	0.771482	0.639403	-1.000000	-1.000000	-1.000000	-1.000000	-1.000000	-1.000000	-1.000000	13.724138	0.000000	-1.000000	-1.000000	362962.000000	1772914662.550117
3762.135000	91005.030000	-10712.655000	-25172.235000	0.000000	0.000000	0.000000	0.000000	5.618113	4.629519	-0.426835	2.071807	-0.000000	0.000000	-0.000000	-0.000000	-4.730600	5.569900	1.709120	-0.080200	0.771482	0.639403	-1.000000	-1.000000	-1.000000	-1.000000	-1.000000	-1.000000	-1.000000	13.724138	0.000000	-1.000000	-1.000000	362963.000000	1772914662.550120
3777.255000	91004.310000	-10694.520000	-25153.200000	0.000000	0.000000	0.000000	0.000000	17.864442	28.588187	5.463701	12.004928	-0.000000	0.000000	-0.000000	-0.000000	-4.730600	5.569900	1.709120	-0.080200	0.771482	0.639403	-1.000000	-1.000000	-1.000000	-1.000000	-1.000000	-1.000000	-1.000000	13.724138	0.000000	-1.000000	-1.000000	362964.000000	1772914662.554161
3734.505000	90983.295000	-10727.595000	-25188.345000	0.000000	0.000000	0.000000	0.000000	23.549055	36.963915	11.776633	18.962172	-0.000000	0.000000	-0.000000	-0.000000	-4.730600	5.569900	1.709120	-0.080200	0.771482	0.639403	-1.000000	-1.000000	-1.000000	-1.000000	-1.000000	-1.000000	-1.000000	13.724138	0.000000	-1.000000	-1.000000	362965.000000	1772914662.554164
3665.160000	90950.625000	-10785.285000	-25249.500000	0.000000	0.000000	0.000000	0.000000	15.144397	24.784703	10.608921	14.813266	-0.000000	0.000000	-0.000000	-0.000000	-4.730600	5.569900	1.709120	-0.080200	0.771482	0.639403	-1.000000	-1.000000	-1.000000	-1.000000	-1.000000	-1.000000	-1.000000	13.724138	0.000000	-1.000000	-1.000000	362966.000000	1772914662.558141
3659.310000	90924.300000	-10782.990000	-25242.975000	0.000000	0.000000	0.000000	0.000000	-6.910817	-1.251974	-1.532690	-2.201910	-0.000000	0.000000	-0.000000	-0.000000	-4.730600	5.569900	1.709120	-0.080200	0.771482	0.639403	-1.000000	-1.000000	-1.000000	-1.000000	-1.000000	-1.000000	-1.000000	13.724138	0.000000	-1.000000	-1.000000	362967.000000	1772914662.558144
3678.435000	90916.830000	-10761.840000	-25218.225000	0.000000	0.000000	0.000000	0.000000	-28.784124	-26.665940	-16.139062	-20.737626	-0.000000	0.000000	-0.000000	-0.000000	-4.730600	5.569900	1.709120	-0.080200	0.771482	0.639403	-1.000000	-1.000000	-1.000000	-1.000000	-1.000000	-1.000000	-1.000000	13.724138	0.000000	-1.000000	-1.000000	362968.000000	1772914662.562132
3698.595000	90935.505000	-10747.890000	-25208.820000	0.000000	0.000000	0.000000	0.000000	-33.422863	-37.418231	-19.997026	-25.692529	-0.000000	0.000000	-0.000000	-0.000000	-4.730600	5.569900	1.709120	-0.080200	0.771482	0.639403	-1.000000	-1.000000	-1.000000	-1.000000	-1.000000	-1.000000	-1.000000	13.724138	0.000000	-1.000000	-1.000000	362969.000000	1772914662.562135
3732.480000	90967.725000	-10729.080000	-25182.360000	0.000000	0.000000	0.000000	0.000000	-16.285012	-27.547304	-9.095005	-13.293948	-0.000000	0.000000	-0.000000	-0.000000	-4.730600	5.569900	1.709120	-0.080200	0.771482	0.639403	-1.000000	-1.000000	-1.000000	-1.000000	-1.000000	-1.000000	-1.000000	13.724138	0.000000	-1.000000	-1.000000	362970.000000	1772914662.566185
3762.090000	90998.730000	-10714.230000	-25173.090000	0.000000	0.000000	0.000000	0.000000	12.070771	-2.347967	8.843161	7.321988	-0.000000	0.000000	-0.000000	-0.000000	-4.730600	5.569900	1.709120	-0.080200	0.771482	0.639403	-1.000000	-1.000000	-1.000000	-1.000000	-1.000000	-1.000000	-1.000000	13.724138	0.000000	-1.000000	-1.000000	362971.000000	1772914662.566188
3746.070000	91009.170000	-10734.210000	-25196.400000	0.000000	0.000000	0.000000	0.000000	34.721253	24.474905	21.910057	22.660693	-0.000000	0.000000	-0.000000	-0.000000	10.804080	7.752080	-0.366240	-0.078552	0.757444	0.641905	-1.000000	-1.000000	-1.000000	-1.000000	-1.000000	-1.000000	-1.000000	13.724138	0.000000	-1.000000	-1.000000	362972.000000	1772914662.570107
3730.095000	90997.650000	-10737.270000	-25195.500000	0.000000	0.000000	0.000000	0.000000	38.267633	38.253229	21.922391	23.551679	-0.000000	0.000000	-0.000000	-0.000000	10.804080	7.752080	-0.366240	-0.078552	0.757444	0.641905	-1.000000	-1.000000	-1.000000	-1.000000	-1.000000	-1.000000	-1.000000	13.724138	0.000000	-1.000000	-1.000000	362973.000000	1772914662.570109
3718.980000	90963.450000	-10735.560000	-25197.480000	0.000000	0.000000	0.000000	0.000000	20.907520	31.326386	9.693988	11.122629	-0.000000	0.000000	-0.000000	-0.000000	10.804080	7.752080	-0.366240	-0.078552	0.757444	0.641905	-1.000000	-1.000000	-1.000000	-1.000000	-1.000000	-1.000000	-1.000000	13.724138	0.000000	-1.000000	-1.000000	362974.000000	1772914662.574163
3698.685000	90931.545000	-10750.545000	-25222.365000	0.000000	0.000000	0.000000	0.000000	-6.582942	7.165065	-6.377699	-5.604451	-0.000000	0.000000	-0.000000	-0.000000	10.804080	7.752080	-0.366240	-0.078552	0.757444	0.641905	-1.000000	-1.000000	-1.000000	-1.000000	-1.000000	-1.000000	-1.000000	13.724138	0.000000	-1.000000	-1.000000	362975.000000	1772914662.574166
3682.080000	90916.245000	-10773.045000	-25256.205000	0.000000	0.000000	0.000000	0.000000	-29.376401	-21.333969	-18.102172	-18.513345	-0.000000	0.000000	-0.000000	-0.000000	10.804080	7.752080	-0.366240	-0.078552	0.757444	0.641905	-1.000000	-1.000000	-1.000000	-1.000000	-1.000000	-1.000000	-1.000000	13.724138	0.000000	-1.000000	-1.000000	362976.000000	1772914662.578209
3689.550000	90928.035000	-10767.510000	-25239.960000	0.000000	0.000000	0.000000	0.000000	-37.421889	-38.618181	-21.829697	-23.578637	-0.000000	0.000000	-0.000000	-0.000000	10.804080	7.752080	-0.366240	-0.078552	0.757444	0.641905	-1.000000	-1.000000	-1.000000	-1.000000	-1.000000	-1.000000	-1.000000	13.724138	0.000000	-1.000000	-1.000000	362977.000000	1772914662.578211
3707.145000	90956.475000	-10759.275000	-25219.530000	0.000000	0.000000	0.000000	0.000000	-28.300656	-35.071307	-16.875359	-18.318387	-0.000000	0.000000	-0.000000	-0.000000	10.804080	7.752080	-0.366240	-0.078552	0.757444	0.641905	-1.000000	-1.000000	-1.000000	-1.000000	-1.000000	-1.000000	-1.000000	13.724138	0.000000	-1.000000	-1.000000	362978.000000	1772914662.582228
3750.390000	90990.045000	-10725.615000	-25178.895000	0.000000	0.000000	0.000000	0.000000	-6.518751	-12.501117	-4.531882	-2.824333	-0.000000	0.000000	-0.000000	-0.000000	10.804080	7.752080	-0.366240	-0.078552	0.757444	0.641905	-1.000000	-1.000000	-1.000000	-1.000000	-1.000000	-1.000000	-1.000000	13.724138	0.000000	-1.000000	-1.000000	362979.000000	1772914662.582232
3768.435000	91008.630000	-10715.490000	-25169.850000	0.000000	0.000000	0.000000	0.000000	18.483866	16.872314	10.983628	16.891688	-0.000000	0.000000	-0.000000	-0.000000	10.804080	7.752080	-0.366240	-0.078552	0.757444	0.641905	-1.000000	-1.000000	-1.000000	-1.000000	-1.000000	-1.000000	-1.000000	13.724138	0.000000	-1.000000	-1.000000	362980.000000	1772914662.586191
3748.095000	91004.850000	-10729.260000	-25182.720000	0.000000	0.000000	0.000000	0.000000	34.825303	37.214972	22.335906	30.011588	-0.000000	0.000000	-0.000000	-0.000000	10.804080	7.752080	-0.366240	-0.078552	0.757444	0.641905	-1.000000	-1.000000	-1.000000	-1.000000	-1.000000	-1.000000	-1.000000	13.724138	0.000000	-1.000000	-1.000000	362981.000000	1772914662.586193
3728.430000	90979.560000	-10737.405000	-25197.165000	0.000000	0.000000	0.000000	0.000000	33.174974	37.674241	22.536350	27.697887	-0.000000	0.000000	-0.000000	-0.000000	12.513200	10.117380	-2.670500	-0.077637	0.753538	0.631773	-1.000000	-1.000000	-1.000000	-1.000000	-1.000000	-1.000000	-1.000000	13.724138	0.000000	-1.000000	-1.000000	362982.000000	1772914662.590148
3708.495000	90947.430000	-10750.095000	-25216.425000	0.000000	0.000000	0.000000	0.000000	13.888731	18.115172	10.922653	10.330134	-0.000000	0.000000	-0.000000	-0.000000	12.513200	10.117380	-2.670500	-0.077637	0.753538	0.631773	-1.000000	-1.000000	-1.000000	-1.000000	-1.000000	-1.000000	-1.000000	13.724138	0.000000	-1.000000	-1.000000	362983.000000	1772914662.590151
3694.275000	90917.595000	-10760.040000	-25225.380000	0.000000	0.000000	0.000000	0.000000	-11.982634	-11.080212	-5.773073	-12.398286	-0.000000	0.000000	-0.000000	-0.000000	12.513200	10.117380	-2.670500	-0.077637	0.753538	0.631773	-1.000000	-1.000000	-1.000000	-1.000000	-1.000000	-1.000000	-1.000000	13.724138	0.000000	-1.000000	-1.000000	362984.000000	1772914662.598369
3692.070000	90914.985000	-10765.215000	-25226.505000	0.000000	0.000000	0.000000	0.000000	-30.321696	-34.695679	-18.606015	-28.255647	-0.000000	0.000000	-0.000000	-0.000000	12.513200	10.117380	-2.670500	-0.077637	0.753538	0.631773	-1.000000	-1.000000	-1.000000	-1.000000	-1.000000	-1.000000	-1.000000	13.724138	0.000000	-1.000000	-1.000000	362985.000000	1772914662.598372
3709.395000	90937.260000	-10757.565000	-25211.610000	0.000000	0.000000	0.000000	0.000000	-32.286271	-40.334620	-21.661017	-29.579893	-0.000000	0.000000	-0.000000	-0.000000	12.513200	10.117380	-2.670500	-0.077637	0.753538	0.631773	-1.000000	-1.000000	-1.000000	-1.000000	-1.000000	-1.000000	-1.000000	13.724138	0.000000	-1.000000	-1.000000	362986.000000	1772914662.598376
3728.340000	90968.760000	-10747.575000	-25192.845000	0.000000	0.000000	0.000000	0.000000	-17.958021	-24.739794	-14.261040	-16.602547	-0.000000	0.000000	-0.000000	-0.000000	12.513200	10.117380	-2.670500	-0.077637	0.753538	0.631773	-1.000000	-1.000000	-1.000000	-1.000000	-1.000000	-1.000000	-1.000000	13.724138	0.000000	-1.000000	-1.000000	362987.000000	1772914662.598378
3747.555000	90991.800000	-10734.795000	-25177.320000	0.000000	0.000000	0.000000	0.000000	4.599602	3.986696	-0.612965	3.496097	-0.000000	0.000000	-0.000000	-0.000000	12.513200	10.117380	-2.670500	-0.077637	0.753538	0.631773	-1.000000	-1.000000	-1.000000	-1.000000	-1.000000	-1.000000	-1.000000	13.724138	0.000000	-1.000000	-1.000000	362988.000000	1772914662.602220
3738.105000	90994.725000	-10743.345000	-25187.220000	0.000000	0.000000	0.000000	0.000000	23.560547	30.435476	12.256592	20.281781	-0.000000	0.000000	-0.000000	-0.000000	12.513200	10.117380	-2.670500	-0.077637	0.753538	0.631773	-1.000000	-1.000000	-1.000000	-1.000000	-1.000000	-1.000000	-1.000000	13.724138	0.000000	-1.000000	-1.000000	362989.000000	1772914662.602223
3713.220000	90975.330000	-10758.195000	-25206.840000	0.000000	0.000000	0.000000	0.000000	29.002895	40.469048	17.652887	25.056341	-0.000000	0.000000	-0.000000	-0.000000	12.513200	10.117380	-2.670500	-0.077637	0.753538	0.631773	-1.000000	-1.000000	-1.000000	-1.000000	-1.000000	-1.000000	-1.000000	13.724138	0.000000	-1.000000	-1.000000	362990.000000	1772914662.606194
3709.035000	90945.855000	-10753.515000	-25206.255000	0.000000	0.000000	0.000000	0.000000	18.610724	29.067002	13.311988	16.107992	-0.000000	0.000000	-0.000000	-0.000000	12.513200	10.117380	-2.670500	-0.077637	0.753538	0.631773	-1.000000	-1.000000	-1.000000	-1.000000	-1.000000	-1.000000	-1.000000	13.724138	0.000000	-1.000000	-1.000000	362991.000000	1772914662.606197
3711.105000	90919.800000	-10745.955000	-25199.820000	0.000000	0.000000	0.000000	0.000000	-0.062221	2.874651	3.514221	0.450591	-0.000000	0.000000	-0.000000	-0.000000	10.361540	10.086860	-0.473060	-0.079773	0.759520	0.624937	-1.000000	-1.000000	-1.000000	-1.000000	-1.000000	-1.000000	-1.000000	13.724138	0.000000	-1.000000	-1.000000	362992.000000	1772914662.610129
3708.045000	90911.655000	-10750.860000	-25204.635000	0.000000	0.000000	0.000000	0.000000	-15.232856	-23.767432	-4.862592	-11.818089	-0.000000	0.000000	-0.000000	-0.000000	10.361540	10.086860	-0.473060	-0.079773	0.759520	0.624937	-1.000000	-1.000000	-1.000000	-1.000000	-1.000000	-1.000000	-1.000000	13.724138	0.000000	-1.000000	-1.000000	362993.000000	1772914662.610133
3748.770000	90924.750000	-10718.865000	-25167.330000	0.000000	0.000000	0.000000	0.000000	-19.059432	-36.775277	-7.702013	-14.704867	-0.000000	0.000000	-0.000000	-0.000000	10.361540	10.086860	-0.473060	-0.079773	0.759520	0.624937	-1.000000	-1.000000	-1.000000	-1.000000	-1.000000	-1.000000	-1.000000	13.724138	0.000000	-1.000000	-1.000000	362994.000000	1772914662.614122
3782.205000	90954.405000	-10698.975000	-25141.545000	0.000000	0.000000	0.000000	0.000000	-10.408466	-29.708723	-4.392428	-7.832114	-0.000000	0.000000	-0.000000	-0.000000	10.361540	10.086860	-0.473060	-0.079773	0.759520	0.624937	-1.000000	-1.000000	-1.000000	-1.000000	-1.000000	-1.000000	-1.000000	13.724138	0.000000	-1.000000	-1.000000	362995.000000	1772914662.614126
3770.685000	90980.235000	-10716.840000	-25154.505000	0.000000	0.000000	0.000000	0.000000	4.717628	-6.899146	1.987596	3.751364	-0.000000	0.000000	-0.000000	-0.000000	10.361540	10.086860	-0.473060	-0.079773	0.759520	0.624937	-1.000000	-1.000000	-1.000000	-1.000000	-1.000000	-1.000000	-1.000000	13.724138	0.000000	-1.000000	-1.000000	362996.000000	1772914662.618113
3744.270000	90992.520000	-10738.755000	-25175.340000	0.000000	0.000000	0.000000	0.000000	14.823856	19.032236	4.929590	10.855497	-0.000000	0.000000	-0.000000	-0.000000	10.361540	10.086860	-0.473060	-0.079773	0.759520	0.624937	-1.000000	-1.000000	-1.000000	-1.000000	-1.000000	-1.000000	-1.000000	13.724138	0.000000	-1.000000	-1.000000	362997.000000	1772914662.618116
3756.870000	90983.025000	-10718.460000	-25156.215000	0.000000	0.000000	0.000000	0.000000	12.020315	34.066172	0.835627	7.825836	-0.000000	0.000000	-0.000000	-0.000000	10.361540	10.086860	-0.473060	-0.079773	0.759520	0.624937	-1.000000	-1.000000	-1.000000	-1.000000	-1.000000	-1.000000	-1.000000	13.724138	0.000000	-1.000000	-1.000000	362998.000000	1772914662.624130
3728.115000	90952.605000	-10736.100000	-25178.085000	0.000000	0.000000	0.000000	0.000000	-0.572129	30.264664	-6.383664	-1.835876	-0.000000	0.000000	-0.000000	-0.000000	10.361540	10.086860	-0.473060	-0.079773	0.759520	0.624937	-1.000000	-1.000000	-1.000000	-1.000000	-1.000000	-1.000000	-1.000000	13.724138	0.000000	-1.000000	-1.000000	362999.000000	1772914662.624134
3698.820000	90919.575000	-10756.530000	-25206.345000	0.000000	0.000000	0.000000	0.000000	-14.165951	9.729120	-11.126837	-11.260854	-0.000000	0.000000	-0.000000	-0.000000	10.361540	10.086860	-0.473060	-0.079773	0.759520	0.624937	-1.000000	-1.000000	-1.000000	-1.000000	-1.000000	-1.000000	-1.000000	13.724138	0.000000	-1.000000	-1.000000	363000.000000	1772914662.627024
3706.020000	90905.085000	-10747.575000	-25200.270000	0.000000	0.000000	0.000000	0.000000	-21.800802	-16.452361	-11.457955	-16.322496	-0.000000	0.000000	-0.000000	-0.000000	10.361540	10.086860	-0.473060	-0.079773	0.759520	0.624937	-1.000000	-1.000000	-1.000000	-1.000000	-1.000000	-1.000000	-1.000000	13.724138	0.000000	-1.000000	-1.000000	363001.000000	1772914662.627026
3728.700000	90913.995000	-10732.185000	-25182.045000	0.000000	0.000000	0.000000	0.000000	-18.978498	-33.808068	-6.936929	-14.281146	-0.000000	0.000000	-0.000000	-0.000000	11.795980	7.324800	-1.785420	-0.088745	0.775755	0.624266	-1.000000	-1.000000	-1.000000	-1.000000	-1.000000	-1.000000	-1.000000	13.724138	0.000000	-1.000000	-1.000000	363002.000000	1772914662.630233
3731.670000	90944.685000	-10740.465000	-25182.180000	0.000000	0.000000	0.000000	0.000000	-5.376717	-32.407226	1.690493	-4.386536	-0.000000	0.000000	-0.000000	-0.000000	11.795980	7.324800	-1.785420	-0.088745	0.775755	0.624266	-1.000000	-1.000000	-1.000000	-1.000000	-1.000000	-1.000000	-1.000000	13.724138	0.000000	-1.000000	-1.000000	363003.000000	1772914662.630236
3707.055000	90976.455000	-10780.065000	-25213.545000	0.000000	0.000000	0.000000	0.000000	11.786148	-12.686335	9.612330	8.248985	-0.000000	0.000000	-0.000000	-0.000000	11.795980	7.324800	-1.785420	-0.088745	0.775755	0.624266	-1.000000	-1.000000	-1.000000	-1.000000	-1.000000	-1.000000	-1.000000	13.724138	0.000000	-1.000000	-1.000000	363004.000000	1772914662.634546
3718.620000	90996.435000	-10773.090000	-25205.625000	0.000000	0.000000	0.000000	0.000000	22.088158	14.551774	11.061380	15.489071	-0.000000	0.000000	-0.000000	-0.000000	11.795980	7.324800	-1.785420	-0.088745	0.775755	0.624266	-1.000000	-1.000000	-1.000000	-1.000000	-1.000000	-1.000000	-1.000000	13.724138	0.000000	-1.000000	-1.000000	363005.000000	1772914662.634549
3730.545000	90991.800000	-10753.065000	-25186.545000	0.000000	0.000000	0.000000	0.000000	21.464674	34.160082	6.766823	14.760174	0.000000	0.000000	-0.000000	-0.000000	11.795980	7.324800	-1.785420	-0.088745	0.775755	0.624266	-1.000000	-1.000000	-1.000000	-1.000000	-1.000000	-1.000000	-1.000000	13.724138	0.000000	-1.000000	-1.000000	363006.000000	1772914662.641426
3708.675000	90963.405000	-10761.840000	-25194.870000	0.000000	0.000000	0.000000	0.000000	13.420953	35.099509	2.773161	10.100484	0.000000	0.000000	-0.000000	-0.000000	11.795980	7.324800	-1.785420	-0.088745	0.775755	0.624266	-1.000000	-1.000000	-1.000000	-1.000000	-1.000000	-1.000000	-1.000000	13.724138	0.000000	-1.000000	-1.000000	363007.000000	1772914662.641429
3694.050000	90932.805000	-10766.565000	-25206.030000	0.000000	0.000000	0.000000	0.000000	2.367425	16.564683	1.854864	4.884190	0.000000	0.000000	-0.000000	-0.000000	11.795980	7.324800	-1.785420	-0.088745	0.775755	0.624266	-1.000000	-1.000000	-1.000000	-1.000000	-1.000000	-1.000000	-1.000000	13.724138	0.000000	-1.000000	-1.000000	363008.000000	1772914662.644516
3679.650000	90911.790000	-10779.165000	-25222.680000	0.000000	0.000000	0.000000	0.000000	-8.573397	-11.383716	1.709904	-0.850381	0.000000	0.000000	-0.000000	-0.000000	11.795980	7.324800	-1.785420	-0.088745	0.775755	0.624266	-1.000000	-1.000000	-1.000000	-1.000000	-1.000000	-1.000000	-1.000000	13.724138	0.000000	-1.000000	-1.000000	363009.000000	1772914662.644518
3674.070000	90910.530000	-10787.445000	-25225.830000	0.000000	0.000000	0.000000	0.000000	-15.875051	-33.424469	-0.131703	-6.854578	0.000000	0.000000	-0.000000	-0.000000	11.795980	7.324800	-1.785420	-0.088745	0.775755	0.624266	-1.000000	-1.000000	-1.000000	-1.000000	-1.000000	-1.000000	-1.000000	13.724138	0.000000	-1.000000	-1.000000	363010.000000	1772914662.646160
3699.720000	90934.335000	-10769.895000	-25203.915000	0.000000	0.000000	0.000000	0.000000	-16.044673	-37.600984	-2.995374	-10.339160	0.000000	0.000000	-0.000000	-0.000000	11.795980	7.324800	-1.785420	-0.088745	0.775755	0.624266	-1.000000	-1.000000	-1.000000	-1.000000	-1.000000	-1.000000	-1.000000	13.724138	0.000000	-1.000000	-1.000000	363011.000000	1772914662.646164
3736.935000	90966.645000	-10744.380000	-25176.015000	0.000000	0.000000	0.000000	0.000000	-7.420599	-21.650196	-3.490547	-7.698707	0.000000	0.000000	-0.000000	-0.000000	9.690100	4.425400	-7.233240	-0.095337	0.790708	0.622130	-1.000000	-1.000000	-1.000000	-1.000000	-1.000000	-1.000000	-1.000000	13.724138	0.000000	-1.000000	-1.000000	363012.000000	1772914662.652111
3753.090000	90995.625000	-10731.915000	-25153.740000	0.000000	0.000000	0.000000	0.000000	7.251452	5.999985	0.504703	1.268099	0.000000	0.000000	-0.000000	-0.000000	9.690100	4.425400	-7.233240	-0.095337	0.790708	0.622130	-1.000000	-1.000000	-1.000000	-1.000000	-1.000000	-1.000000	-1.000000	13.724138	0.000000	-1.000000	-1.000000	363013.000000	1772914662.652114
3739.545000	91006.560000	-10742.580000	-25162.650000	0.000000	0.000000	0.000000	0.000000	19.626672	30.809252	6.080646	11.109073	0.000000	0.000000	-0.000000	-0.000000	9.690100	4.425400	-7.233240	-0.095337	0.790708	0.622130	-1.000000	-1.000000	-1.000000	-1.000000	-1.000000	-1.000000	-1.000000	13.724138	0.000000	-1.000000	-1.000000	363014.000000	1772914662.654099
3704.805000	90989.505000	-10769.130000	-25193.745000	0.000000	0.000000	0.000000	0.000000	20.210782	39.753673	7.055163	13.644766	0.000000	0.000000	-0.000000	-0.000000	9.690100	4.425400	-7.233240	-0.095337	0.790708	0.622130	-1.000000	-1.000000	-1.000000	-1.000000	-1.000000	-1.000000	-1.000000	13.724138	0.000000	-1.000000	-1.000000	363015.000000	1772914662.654102
3716.370000	90958.095000	-10754.910000	-25185.870000	0.000000	0.000000	0.000000	0.000000	6.957739	27.911073	0.708966	5.239911	0.000000	0.000000	-0.000000	-0.000000	9.690100	4.425400	-7.233240	-0.095337	0.790708	0.622130	-1.000000	-1.000000	-1.000000	-1.000000	-1.000000	-1.000000	-1.000000	13.724138	0.000000	-1.000000	-1.000000	363016.000000	1772914662.658193
3750.480000	90935.505000	-10709.190000	-25146.090000	0.000000	0.000000	0.000000	0.000000	-10.545821	1.252009	-7.445870	-7.696990	0.000000	0.000000	-0.000000	-0.000000	9.690100	4.425400	-7.233240	-0.095337	0.790708	0.622130	-1.000000	-1.000000	-1.000000	-1.000000	-1.000000	-1.000000	-1.000000	13.724138	0.000000	-1.000000	-1.000000	363017.000000	1772914662.658196
3731.895000	90926.685000	-10724.625000	-25161.345000	0.000000	0.000000	0.000000	0.000000	-19.599853	-26.073473	-9.364194	-14.511042	0.000000	0.000000	-0.000000	-0.000000	9.690100	4.425400	-7.233240	-0.095337	0.790708	0.622130	-1.000000	-1.000000	-1.000000	-1.000000	-1.000000	-1.000000	-1.000000	13.724138	0.000000	-1.000000	-1.000000	363018.000000	1772914662.662151
3689.820000	90938.835000	-10777.545000	-25206.030000	0.000000	0.000000	0.000000	0.000000	-17.745463	-39.555515	-5.703449	-12.899909	0.000000	0.000000	-0.000000	-0.000000	9.690100	4.425400	-7.233240	-0.095337	0.790708	0.622130	-1.000000	-1.000000	-1.000000	-1.000000	-1.000000	-1.000000	-1.000000	13.724138	0.000000	-1.000000	-1.000000	363019.000000	1772914662.662154
3692.745000	90968.085000	-10791.630000	-25212.645000	0.000000	0.000000	0.000000	0.000000	-11.922618	-32.401561	-4.401369	-9.310439	0.000000	0.000000	-0.000000	-0.000000	9.690100	4.425400	-7.233240	-0.095337	0.790708	0.622130	-1.000000	-1.000000	-1.000000	-1.000000	-1.000000	-1.000000	-1.000000	13.724138	0.000000	-1.000000	-1.000000	363020.000000	1772914662.666224
3727.440000	90998.910000	-10763.730000	-25177.095000	0.000000	0.000000	0.000000	0.000000	-5.948318	-8.761048	-7.336635	-6.782807	0.000000	0.000000	-0.000000	-0.000000	9.690100	4.425400	-7.233240	-0.095337	0.790708	0.622130	-1.000000	-1.000000	-1.000000	-1.000000	-1.000000	-1.000000	-1.000000	13.724138	0.000000	-1.000000	-1.000000	363021.000000	1772914662.666227
3740.805000	91011.015000	-10750.095000	-25160.490000	0.000000	0.000000	0.000000	0.000000	2.415989	18.763895	-7.365980	-1.360526	0.000000	0.000000	-0.000000	-0.000000	1.663340	-0.244160	-7.385840	-0.097656	0.800779	0.617491	-1.000000	-1.000000	-1.000000	-1.000000	-1.000000	-1.000000	-1.000000	13.724138	0.000000	-1.000000	-1.000000	363022.000000	1772914662.670250
3730.365000	90996.570000	-10753.020000	-25165.980000	0.000000	0.000000	0.000000	0.000000	12.697022	35.531482	0.152960	8.415953	0.000000	0.000000	-0.000000	-0.000000	1.663340	-0.244160	-7.385840	-0.097656	0.800779	0.617491	-1.000000	-1.000000	-1.000000	-1.000000	-1.000000	-1.000000	-1.000000	13.724138	0.000000	-1.000000	-1.000000	363023.000000	1772914662.670253
3709.620000	90963.675000	-10762.830000	-25180.965000	0.000000	0.000000	0.000000	0.000000	18.417684	32.504705	10.500732	16.479987	0.000000	0.000000	-0.000000	-0.000000	1.663340	-0.244160	-7.385840	-0.097656	0.800779	0.617491	-1.000000	-1.000000	-1.000000	-1.000000	-1.000000	-1.000000	-1.000000	13.724138	0.000000	-1.000000	-1.000000	363024.000000	1772914662.674215
3683.655000	90931.995000	-10776.555000	-25202.565000	0.000000	0.000000	0.000000	0.000000	14.009251	11.435271	15.483441	15.778921	0.000000	0.000000	-0.000000	-0.000000	1.663340	-0.244160	-7.385840	-0.097656	0.800779	0.617491	-1.000000	-1.000000	-1.000000	-1.000000	-1.000000	-1.000000	-1.000000	13.724138	0.000000	-1.000000	-1.000000	363025.000000	1772914662.674218
3673.755000	90914.940000	-10784.520000	-25217.370000	0.000000	0.000000	0.000000	0.000000	1.250701	-15.793148	11.662499	5.733474	0.000000	0.000000	-0.000000	-0.000000	1.663340	-0.244160	-7.385840	-0.097656	0.800779	0.617491	-1.000000	-1.000000	-1.000000	-1.000000	-1.000000	-1.000000	-1.000000	13.724138	0.000000	-1.000000	-1.000000	363026.000000	1772914662.678178
3691.035000	90920.745000	-10773.540000	-25201.035000	0.000000	0.000000	0.000000	0.000000	-11.308803	-33.874145	2.609047	-6.920924	0.000000	0.000000	-0.000000	-0.000000	1.663340	-0.244160	-7.385840	-0.097656	0.800779	0.617491	-1.000000	-1.000000	-1.000000	-1.000000	-1.000000	-1.000000	-1.000000	13.724138	0.000000	-1.000000	-1.000000	363027.000000	1772914662.678181
3741.570000	90947.340000	-10730.970000	-25146.405000	0.000000	0.000000	0.000000	0.000000	-14.072751	-32.762359	-4.135429	-12.421359	0.000000	0.000000	-0.000000	-0.000000	1.663340	-0.244160	-7.385840	-0.097656	0.800779	0.617491	-1.000000	-1.000000	-1.000000	-1.000000	-1.000000	-1.000000	-1.000000	13.724138	0.000000	-1.000000	-1.000000	363028.000000	1772914662.682256
3775.140000	90981.630000	-10705.455000	-25110.540000	0.000000	0.000000	0.000000	0.000000	-3.579956	-13.032009	-2.943318	-5.194150	0.000000	0.000000	-0.000000	-0.000000	1.663340	-0.244160	-7.385840	-0.097656	0.800779	0.617491	-1.000000	-1.000000	-1.000000	-1.000000	-1.000000	-1.000000	-1.000000	13.724138	0.000000	-1.000000	-1.000000	363029.000000	1772914662.682259
3767.760000	91000.395000	-10716.975000	-25116.165000	0.000000	0.000000	0.000000	0.000000	13.035007	14.610703	4.104259	9.689307	0.000000	0.000000	-0.000000	-0.000000	1.663340	-0.244160	-7.385840	-0.097656	0.800779	0.617491	-1.000000	-1.000000	-1.000000	-1.000000	-1.000000	-1.000000	-1.000000	13.724138	0.000000	-1.000000	-1.000000	363030.000000	1772914662.686247
3741.885000	90995.220000	-10744.380000	-25149.780000	0.000000	0.000000	0.000000	0.000000	21.929859	34.981852	8.006202	18.693855	0.000000	0.000000	-0.000000	-0.000000	1.663340	-0.244160	-7.385840	-0.097656	0.800779	0.617491	-1.000000	-1.000000	-1.000000	-1.000000	-1.000000	-1.000000	-1.000000	13.724138	0.000000	-1.000000	-1.000000	363031.000000	1772914662.686250
3747.780000	90969.885000	-10728.180000	-25144.650000	0.000000	0.000000	0.000000	0.000000	14.707612	36.648724	2.561631	12.306502	0.000000	0.000000	-0.000000	-0.000000	-7.034860	-3.540320	-6.241340	-0.095764	0.809995	0.613524	-1.000000	-1.000000	-1.000000	-1.000000	-1.000000	-1.000000	-1.000000	13.724138	0.000000	-1.000000	-1.000000	363032.000000	1772914662.690244
3718.755000	90936.720000	-10745.010000	-25169.895000	0.000000	0.000000	0.000000	0.000000	-3.990181	18.425620	-8.575114	-5.604572	0.000000	0.000000	-0.000000	-0.000000	-7.034860	-3.540320	-6.241340	-0.095764	0.809995	0.613524	-1.000000	-1.000000	-1.000000	-1.000000	-1.000000	-1.000000	-1.000000	13.724138	0.000000	-1.000000	-1.000000	363033.000000	1772914662.690247
3659.130000	90905.175000	-10798.965000	-25223.040000	0.000000	0.000000	0.000000	0.000000	-23.232750	-10.054782	-18.069392	-23.708836	0.000000	0.000000	-0.000000	-0.000000	-7.034860	-3.540320	-6.241340	-0.095764	0.809995	0.613524	-1.000000	-1.000000	-1.000000	-1.000000	-1.000000	-1.000000	-1.000000	13.724138	0.000000	-1.000000	-1.000000	363034.000000	1772914662.694224
3663.270000	90905.985000	-10795.680000	-25208.595000	0.000000	0.000000	0.000000	0.000000	-34.573090	-33.703591	-22.342827	-33.014653	0.000000	0.000000	-0.000000	-0.000000	-7.034860	-3.540320	-6.241340	-0.095764	0.809995	0.613524	-1.000000	-1.000000	-1.000000	-1.000000	-1.000000	-1.000000	-1.000000	13.724138	0.000000	-1.000000	-1.000000	363035.000000	1772914662.694227
3698.370000	90932.985000	-10765.440000	-25175.115000	0.000000	0.000000	0.000000	0.000000	-31.758762	-39.612443	-18.783740	-27.823164	0.000000	0.000000	-0.000000	-0.000000	-7.034860	-3.540320	-6.241340	-0.095764	0.809995	0.613524	-1.000000	-1.000000	-1.000000	-1.000000	-1.000000	-1.000000	-1.000000	13.724138	0.000000	-1.000000	-1.000000	363036.000000	1772914662.698242
3730.230000	90968.670000	-10744.560000	-25145.955000	0.000000	0.000000	0.000000	0.000000	-12.159162	-23.928508	-5.014175	-7.223208	0.000000	0.000000	-0.000000	-0.000000	-7.034860	-3.540320	-6.241340	-0.095764	0.809995	0.613524	-1.000000	-1.000000	-1.000000	-1.000000	-1.000000	-1.000000	-1.000000	13.724138	0.000000	-1.000000	-1.000000	363037.000000	1772914662.698246
3752.595000	90996.120000	-10729.395000	-25127.100000	0.000000	0.000000	0.000000	0.000000	17.119562	5.235426	14.989752	20.320513	0.000000	0.000000	-0.000000	-0.000000	-7.034860	-3.540320	-6.241340	-0.095764	0.809995	0.613524	-1.000000	-1.000000	-1.000000	-1.000000	-1.000000	-1.000000	-1.000000	13.724138	0.000000	-1.000000	-1.000000	363038.000000	1772914662.702234
3749.085000	91001.655000	-10734.030000	-25140.240000	0.000000	0.000000	0.000000	0.000000	40.732082	31.913245	30.655938	39.935911	0.000000	0.000000	-0.000000	-0.000000	-7.034860	-3.540320	-6.241340	-0.095764	0.809995	0.613524	-1.000000	-1.000000	-1.000000	-1.000000	-1.000000	-1.000000	-1.000000	13.724138	0.000000	-1.000000	-1.000000	363039.000000	1772914662.702238
3736.620000	90981.405000	-10738.800000	-25155.135000	0.000000	0.000000	0.000000	0.000000	45.230751	41.389390	32.615257	40.148218	0.000000	0.000000	-0.000000	-0.000000	-7.034860	-3.540320	-6.241340	-0.095764	0.809995	0.613524	-1.000000	-1.000000	-1.000000	-1.000000	-1.000000	-1.000000	-1.000000	13.724138	0.000000	-1.000000	-1.000000	363040.000000	1772914662.706234
3712.770000	90949.860000	-10750.095000	-25170.840000	0.000000	0.000000	0.000000	0.000000	28.013322	28.451879	19.600192	20.831182	0.000000	0.000000	-0.000000	-0.000000	-7.034860	-3.540320	-6.241340	-0.095764	0.809995	0.613524	-1.000000	-1.000000	-1.000000	-1.000000	-1.000000	-1.000000	-1.000000	13.724138	0.000000	-1.000000	-1.000000	363041.000000	1772914662.706237
3694.365000	90921.015000	-10759.815000	-25182.630000	0.000000	0.000000	0.000000	0.000000	-1.589449	0.172431	-1.270859	-6.923343	0.000000	0.000000	-0.000000	-0.000000	-17.594780	-5.249440	-7.233240	-0.095642	0.814390	0.611510	-1.000000	-1.000000	-1.000000	-1.000000	-1.000000	-1.000000	-1.000000	13.724138	0.000000	-1.000000	-1.000000	363042.000000	1772914662.710183
3693.195000	90913.185000	-10761.705000	-25185.600000	0.000000	0.000000	0.000000	0.000000	-28.375297	-28.131528	-19.602657	-28.616942	0.000000	0.000000	-0.000000	-0.000000	-17.594780	-5.249440	-7.233240	-0.095642	0.814390	0.611510	-1.000000	-1.000000	-1.000000	-1.000000	-1.000000	-1.000000	-1.000000	13.724138	0.000000	-1.000000	-1.000000	363043.000000	1772914662.710186
3710.835000	90923.445000	-10750.950000	-25168.860000	0.000000	0.000000	0.000000	0.000000	-39.451444	-41.408893	-27.322744	-34.583670	0.000000	0.000000	-0.000000	-0.000000	-17.594780	-5.249440	-7.233240	-0.095642	0.814390	0.611510	-1.000000	-1.000000	-1.000000	-1.000000	-1.000000	-1.000000	-1.000000	13.724138	0.000000	-1.000000	-1.000000	363044.000000	1772914662.714289
3748.320000	90953.955000	-10723.590000	-25139.295000	0.000000	0.000000	0.000000	0.000000	-30.293297	-32.963544	-21.796083	-23.511829	0.000000	0.000000	-0.000000	-0.000000	-17.594780	-5.249440	-7.233240	-0.095642	0.814390	0.611510	-1.000000	-1.000000	-1.000000	-1.000000	-1.000000	-1.000000	-1.000000	13.724138	0.000000	-1.000000	-1.000000	363045.000000	1772914662.714292
3775.815000	90983.430000	-10702.620000	-25111.620000	0.000000	0.000000	0.000000	0.000000	-6.534465	-7.612441	-6.416190	-1.824269	0.000000	0.000000	-0.000000	-0.000000	-17.594780	-5.249440	-7.233240	-0.095642	0.814390	0.611510	-1.000000	-1.000000	-1.000000	-1.000000	-1.000000	-1.000000	-1.000000	13.724138	0.000000	-1.000000	-1.000000	363046.000000	1772914662.718352
3786.615000	90997.245000	-10688.760000	-25092.540000	0.000000	0.000000	0.000000	0.000000	18.821459	21.196812	10.810211	19.543554	0.000000	0.000000	-0.000000	-0.000000	-17.594780	-5.249440	-7.233240	-0.095642	0.814390	0.611510	-1.000000	-1.000000	-1.000000	-1.000000	-1.000000	-1.000000	-1.000000	13.724138	0.000000	-1.000000	-1.000000	363047.000000	1772914662.718355
3784.680000	90987.255000	-10676.565000	-25077.195000	0.000000	0.000000	0.000000	0.000000	32.229619	38.393622	21.212551	30.453186	0.000000	0.000000	-0.000000	-0.000000	-17.594780	-5.249440	-7.233240	-0.095642	0.814390	0.611510	-1.000000	-1.000000	-1.000000	-1.000000	-1.000000	-1.000000	-1.000000	13.724138	0.000000	-1.000000	-1.000000	363048.000000	1772914662.722181
3748.860000	90958.590000	-10704.870000	-25118.820000	0.000000	0.000000	0.000000	0.000000	26.919504	35.120821	19.789335	25.822641	0.000000	0.000000	-0.000000	-0.000000	-17.594780	-5.249440	-7.233240	-0.095642	0.814390	0.611510	-1.000000	-1.000000	-1.000000	-1.000000	-1.000000	-1.000000	-1.000000	13.724138	0.000000	-1.000000	-1.000000	363049.000000	1772914662.722183
3687.570000	90924.300000	-10761.885000	-25186.995000	0.000000	0.000000	0.000000	0.000000	5.334304	13.347838	6.253767	6.149715	0.000000	0.000000	-0.000000	-0.000000	-17.594780	-5.249440	-7.233240	-0.095642	0.814390	0.611510	-1.000000	-1.000000	-1.000000	-1.000000	-1.000000	-1.000000	-1.000000	13.724138	0.000000	-1.000000	-1.000000	363050.000000	1772914662.726106
3678.030000	90908.910000	-10767.060000	-25187.895000	0.000000	0.000000	0.000000	0.000000	-22.046312	-15.167118	-14.148177	-21.047033	0.000000	0.000000	-0.000000	-0.000000	-17.594780	-5.249440	-7.233240	-0.095642	0.814390	0.611510	-1.000000	-1.000000	-1.000000	-1.000000	-1.000000	-1.000000	-1.000000	13.724138	0.000000	-1.000000	-1.000000	363051.000000	1772914662.726109
3719.520000	90919.530000	-10729.800000	-25141.590000	0.000000	0.000000	0.000000	0.000000	-39.133321	-34.923670	-29.252664	-39.771184	0.000000	0.000000	-0.000000	-0.000000	-26.216680	-8.255660	-7.156940	-0.094482	0.807920	0.613097	-1.000000	-1.000000	-1.000000	-1.000000	-1.000000	-1.000000	-1.000000	13.724138	0.000000	-1.000000	-1.000000	363052.000000	1772914662.732422
3716.190000	90948.960000	-10746.315000	-25156.530000	0.000000	0.000000	0.000000	0.000000	-33.583111	-35.036089	-27.491157	-35.915255	0.000000	0.000000	-0.000000	-0.000000	-26.216680	-8.255660	-7.156940	-0.094482	0.807920	0.613097	-1.000000	-1.000000	-1.000000	-1.000000	-1.000000	-1.000000	-1.000000	13.724138	0.000000	-1.000000	-1.000000	363053.000000	1772914662.732425
3740.805000	90978.390000	-10729.620000	-25135.290000	0.000000	0.000000	0.000000	0.000000	-8.350492	-15.602686	-9.775746	-11.830439	0.000000	0.000000	-0.000000	-0.000000	-26.216680	-8.255660	-7.156940	-0.094482	0.807920	0.613097	-1.000000	-1.000000	-1.000000	-1.000000	-1.000000	-1.000000	-1.000000	13.724138	0.000000	-1.000000	-1.000000	363054.000000	1772914662.735920
3749.670000	90996.210000	-10719.405000	-25120.710000	0.000000	0.000000	0.000000	0.000000	20.862501	12.189725	12.246117	16.821740	0.000000	0.000000	-0.000000	-0.000000	-26.216680	-8.255660	-7.156940	-0.094482	0.807920	0.613097	-1.000000	-1.000000	-1.000000	-1.000000	-1.000000	-1.000000	-1.000000	13.724138	0.000000	-1.000000	-1.000000	363055.000000	1772914662.735922
3741.885000	90990.495000	-10721.340000	-25126.830000	0.000000	0.000000	0.000000	0.000000	38.281946	32.664519	27.055585	35.093155	0.000000	0.000000	-0.000000	-0.000000	-26.216680	-8.255660	-7.156940	-0.094482	0.807920	0.613097	-1.000000	-1.000000	-1.000000	-1.000000	-1.000000	-1.000000	-1.000000	13.724138	0.000000	-1.000000	-1.000000	363056.000000	1772914662.740653
3719.835000	90964.755000	-10733.130000	-25142.670000	0.000000	0.000000	0.000000	0.000000	36.186930	34.598734	28.677111	35.670555	0.000000	0.000000	-0.000000	-0.000000	-26.216680	-8.255660	-7.156940	-0.094482	0.807920	0.613097	-1.000000	-1.000000	-1.000000	-1.000000	-1.000000	-1.000000	-1.000000	13.724138	0.000000	-1.000000	-1.000000	363057.000000	1772914662.740656
3681.630000	90931.545000	-10769.670000	-25178.670000	0.000000	0.000000	0.000000	0.000000	16.807995	17.185329	17.228196	19.737419	0.000000	0.000000	-0.000000	-0.000000	-26.216680	-8.255660	-7.156940	-0.094482	0.807920	0.613097	-1.000000	-1.000000	-1.000000	-1.000000	-1.000000	-1.000000	-1.000000	13.724138	0.000000	-1.000000	-1.000000	363058.000000	1772914662.744389
3674.475000	90909.450000	-10763.865000	-25176.420000	0.000000	0.000000	0.000000	0.000000	-9.466711	-9.819831	-1.364686	-3.967196	0.000000	0.000000	-0.000000	-0.000000	-26.216680	-8.255660	-7.156940	-0.094482	0.807920	0.613097	-1.000000	-1.000000	-1.000000	-1.000000	-1.000000	-1.000000	-1.000000	13.724138	0.000000	-1.000000	-1.000000	363059.000000	1772914662.744391
3703.230000	90908.685000	-10735.650000	-25152.705000	0.000000	0.000000	0.000000	0.000000	-28.368548	-31.535036	-16.573683	-22.359689	0.000000	0.000000	-0.000000	-0.000000	-26.216680	-8.255660	-7.156940	-0.094482	0.807920	0.613097	-1.000000	-1.000000	-1.000000	-1.000000	-1.000000	-1.000000	-1.000000	13.724138	0.000000	-1.000000	-1.000000	363060.000000	1772914662.746093
3727.215000	90929.655000	-10726.605000	-25138.755000	0.000000	0.000000	0.000000	0.000000	-29.114425	-36.064643	-19.234885	-25.276291	0.000000	0.000000	-0.000000	-0.000000	-26.216680	-8.255660	-7.156940	-0.094482	0.807920	0.613097	-1.000000	-1.000000	-1.000000	-1.000000	-1.000000	-1.000000	-1.000000	13.724138	0.000000	-1.000000	-1.000000	363061.000000	1772914662.746095
3702.870000	90956.070000	-10756.440000	-25158.465000	0.000000	0.000000	0.000000	0.000000	-13.094399	-20.993525	-10.184132	-13.638602	0.000000	0.000000	-0.000000	-0.000000	-26.079340	-5.249440	-9.384900	-0.091186	0.793272	0.618224	-1.000000	-1.000000	-1.000000	-1.000000	-1.000000	-1.000000	-1.000000	13.724138	0.000000	-1.000000	-1.000000	363062.000000	1772914662.750271
3702.645000	90980.865000	-10757.835000	-25157.295000	0.000000	0.000000	0.000000	0.000000	6.486045	5.398683	0.694211	1.708395	0.000000	0.000000	-0.000000	-0.000000	-26.079340	-5.249440	-9.384900	-0.091186	0.793272	0.618224	-1.000000	-1.000000	-1.000000	-1.000000	-1.000000	-1.000000	-1.000000	13.724138	0.000000	-1.000000	-1.000000	363063.000000	1772914662.750274
3730.770000	90980.370000	-10730.205000	-25130.295000	0.000000	0.000000	0.000000	0.000000	17.504962	28.859662	6.085896	11.225224	0.000000	0.000000	-0.000000	-0.000000	-26.079340	-5.249440	-9.384900	-0.091186	0.793272	0.618224	-1.000000	-1.000000	-1.000000	-1.000000	-1.000000	-1.000000	-1.000000	13.724138	0.000000	-1.000000	-1.000000	363064.000000	1772914662.754267
3736.170000	90957.960000	-10715.355000	-25117.605000	0.000000	0.000000	0.000000	0.000000	18.207076	36.772505	7.219324	13.677689	0.000000	0.000000	-0.000000	-0.000000	-26.079340	-5.249440	-9.384900	-0.091186	0.793272	0.618224	-1.000000	-1.000000	-1.000000	-1.000000	-1.000000	-1.000000	-1.000000	13.724138	0.000000	-1.000000	-1.000000	363065.000000	1772914662.754270
3714.075000	90923.445000	-10724.490000	-25133.715000	0.000000	0.000000	0.000000	0.000000	12.218111	24.791885	7.327732	11.464664	0.000000	0.000000	-0.000000	-0.000000	-26.079340	-5.249440	-9.384900	-0.091186	0.793272	0.618224	-1.000000	-1.000000	-1.000000	-1.000000	-1.000000	-1.000000	-1.000000	13.724138	0.000000	-1.000000	-1.000000	363066.000000	1772914662.758132
3683.205000	90896.895000	-10745.190000	-25160.220000	0.000000	0.000000	0.000000	0.000000	1.735224	-0.588835	5.513223	4.957396	0.000000	0.000000	-0.000000	-0.000000	-26.079340	-5.249440	-9.384900	-0.091186	0.793272	0.618224	-1.000000	-1.000000	-1.000000	-1.000000	-1.000000	-1.000000	-1.000000	13.724138	0.000000	-1.000000	-1.000000	363067.000000	1772914662.758134
3687.210000	90890.100000	-10740.285000	-25154.055000	0.000000	0.000000	0.000000	0.000000	-10.648829	-25.390429	-0.031468	-5.083108	0.000000	0.000000	-0.000000	-0.000000	-26.079340	-5.249440	-9.384900	-0.091186	0.793272	0.618224	-1.000000	-1.000000	-1.000000	-1.000000	-1.000000	-1.000000	-1.000000	13.724138	0.000000	-1.000000	-1.000000	363068.000000	1772914662.762078
3718.350000	90909.945000	-10713.015000	-25119.540000	0.000000	0.000000	0.000000	0.000000	-18.415703	-35.854955	-6.462044	-13.156413	0.000000	0.000000	-0.000000	-0.000000	-26.079340	-5.249440	-9.384900	-0.091186	0.793272	0.618224	-1.000000	-1.000000	-1.000000	-1.000000	-1.000000	-1.000000	-1.000000	13.724138	0.000000	-1.000000	-1.000000	363069.000000	1772914662.762081
3763.260000	90943.875000	-10676.790000	-25071.210000	0.000000	0.000000	0.000000	0.000000	-14.631303	-26.061804	-7.691976	-11.900335	0.000000	0.000000	-0.000000	-0.000000	-26.079340	-5.249440	-9.384900	-0.091186	0.793272	0.618224	-1.000000	-1.000000	-1.000000	-1.000000	-1.000000	-1.000000	-1.000000	13.724138	0.000000	-1.000000	-1.000000	363070.000000	1772914662.766428
3765.060000	90971.730000	-10684.755000	-25067.970000	0.000000	0.000000	0.000000	0.000000	0.081755	-1.327102	-1.823577	-0.483798	0.000000	0.000000	-0.000000	-0.000000	-26.079340	-5.249440	-9.384900	-0.091186	0.793272	0.618224	-1.000000	-1.000000	-1.000000	-1.000000	-1.000000	-1.000000	-1.000000	13.724138	0.000000	-1.000000	-1.000000	363071.000000	1772914662.766431
3738.645000	90978.480000	-10714.050000	-25102.440000	0.000000	0.000000	0.000000	0.000000	15.001720	24.507889	4.889123	11.626658	0.000000	0.000000	-0.000000	-0.000000	-22.462720	-7.370580	-9.354380	-0.094238	0.777952	0.628844	-1.000000	-1.000000	-1.000000	-1.000000	-1.000000	-1.000000	-1.000000	13.724138	0.000000	-1.000000	-1.000000	363072.000000	1772914662.770226
3700.395000	90964.170000	-10748.205000	-25147.395000	0.000000	0.000000	0.000000	0.000000	17.466166	36.830727	3.967667	12.121611	0.000000	0.000000	-0.000000	-0.000000	-22.462720	-7.370580	-9.354380	-0.094238	0.777952	0.628844	-1.000000	-1.000000	-1.000000	-1.000000	-1.000000	-1.000000	-1.000000	13.724138	0.000000	-1.000000	-1.000000	363073.000000	1772914662.770229
3693.195000	90931.770000	-10744.830000	-25159.590000	0.000000	0.000000	0.000000	0.000000	4.759672	28.636584	-5.442452	-1.616988	0.000000	0.000000	-0.000000	-0.000000	-22.462720	-7.370580	-9.354380	-0.094238	0.777952	0.628844	-1.000000	-1.000000	-1.000000	-1.000000	-1.000000	-1.000000	-1.000000	13.724138	0.000000	-1.000000	-1.000000	363074.000000	1772914662.774217
3705.795000	90899.550000	-10720.485000	-25141.815000	0.000000	0.000000	0.000000	0.000000	-12.773631	4.310596	-14.472649	-18.578104	0.000000	0.000000	-0.000000	-0.000000	-22.462720	-7.370580	-9.354380	-0.094238	0.777952	0.628844	-1.000000	-1.000000	-1.000000	-1.000000	-1.000000	-1.000000	-1.000000	13.724138	0.000000	-1.000000	-1.000000	363075.000000	1772914662.774220
3713.130000	90875.745000	-10709.145000	-25125.480000	0.000000	0.000000	0.000000	0.000000	-21.164737	-23.148317	-13.365408	-23.940723	0.000000	0.000000	-0.000000	-0.000000	-22.462720	-7.370580	-9.354380	-0.094238	0.777952	0.628844	-1.000000	-1.000000	-1.000000	-1.000000	-1.000000	-1.000000	-1.000000	13.724138	0.000000	-1.000000	-1.000000	363076.000000	1772914662.778174
3683.835000	90889.830000	-10746.045000	-25158.645000	0.000000	0.000000	0.000000	0.000000	-15.591926	-39.081425	-2.305444	-13.365849	0.000000	0.000000	-0.000000	-0.000000	-22.462720	-7.370580	-9.354380	-0.094238	0.777952	0.628844	-1.000000	-1.000000	-1.000000	-1.000000	-1.000000	-1.000000	-1.000000	13.724138	0.000000	-1.000000	-1.000000	363077.000000	1772914662.778177
3683.070000	90919.305000	-10759.545000	-25164.045000	0.000000	0.000000	0.000000	0.000000	-2.829641	-34.474236	8.762360	3.785001	0.000000	0.000000	-0.000000	-0.000000	-22.462720	-7.370580	-9.354380	-0.094238	0.777952	0.628844	-1.000000	-1.000000	-1.000000	-1.000000	-1.000000	-1.000000	-1.000000	13.724138	0.000000	-1.000000	-1.000000	363078.000000	1772914662.782239
3726.945000	90955.215000	-10725.120000	-25120.530000	0.000000	0.000000	0.000000	0.000000	8.900231	-10.968393	12.423051	16.595257	0.000000	0.000000	-0.000000	-0.000000	-22.462720	-7.370580	-9.354380	-0.094238	0.777952	0.628844	-1.000000	-1.000000	-1.000000	-1.000000	-1.000000	-1.000000	-1.000000	13.724138	0.000000	-1.000000	-1.000000	363079.000000	1772914662.782242
3760.830000	90977.085000	-10693.260000	-25086.195000	0.000000	0.000000	0.000000	0.000000	17.683467	19.312581	11.444108	22.959502	0.000000	0.000000	-0.000000	-0.000000	-22.462720	-7.370580	-9.354380	-0.094238	0.777952	0.628844	-1.000000	-1.000000	-1.000000	-1.000000	-1.000000	-1.000000	-1.000000	13.724138	0.000000	-1.000000	-1.000000	363080.000000	1772914662.786341
3775.410000	90974.385000	-10672.380000	-25066.305000	0.000000	0.000000	0.000000	0.000000	23.571388	40.202499	11.625808	25.086632	0.000000	0.000000	-0.000000	-0.000000	-22.462720	-7.370580	-9.354380	-0.094238	0.777952	0.628844	-1.000000	-1.000000	-1.000000	-1.000000	-1.000000	-1.000000	-1.000000	13.724138	0.000000	-1.000000	-1.000000	363081.000000	1772914662.786344
3744.810000	90946.800000	-10696.455000	-25095.645000	0.000000	0.000000	0.000000	0.000000	22.781687	40.324260	12.335494	21.556627	0.000000	0.000000	-0.000000	-0.000000	-17.350620	-5.569900	-6.210820	-0.096557	0.773924	0.635130	-1.000000	-1.000000	-1.000000	-1.000000	-1.000000	-1.000000	-1.000000	13.724138	0.000000	-1.000000	-1.000000	363082.000000	1772914662.790242
3712.320000	90914.625000	-10716.750000	-25124.085000	0.000000	0.000000	0.000000	0.000000	10.680013	19.275434	7.701926	8.652528	0.000000	0.000000	-0.000000	-0.000000	-17.350620	-5.569900	-6.210820	-0.096557	0.773924	0.635130	-1.000000	-1.000000	-1.000000	-1.000000	-1.000000	-1.000000	-1.000000	13.724138	0.000000	-1.000000	-1.000000	363083.000000	1772914662.790245
3662.235000	90884.205000	-10757.340000	-25169.670000	0.000000	0.000000	0.000000	0.000000	-11.195197	-12.083477	-5.070292	-12.600295	0.000000	0.000000	-0.000000	-0.000000	-17.350620	-5.569900	-6.210820	-0.096557	0.773924	0.635130	-1.000000	-1.000000	-1.000000	-1.000000	-1.000000	-1.000000	-1.000000	13.724138	0.000000	-1.000000	-1.000000	363084.000000	1772914662.795702
3649.230000	90882.585000	-10773.675000	-25184.790000	0.000000	0.000000	0.000000	0.000000	-33.167116	-37.488984	-21.134914	-33.604802	0.000000	0.000000	-0.000000	-0.000000	-17.350620	-5.569900	-6.210820	-0.096557	0.773924	0.635130	-1.000000	-1.000000	-1.000000	-1.000000	-1.000000	-1.000000	-1.000000	13.724138	0.000000	-1.000000	-1.000000	363085.000000	1772914662.795705
3681.045000	90906.975000	-10755.135000	-25159.320000	0.000000	0.000000	0.000000	0.000000	-41.976832	-43.662541	-30.536563	-42.241547	0.000000	0.000000	-0.000000	-0.000000	-17.350620	-5.569900	-6.210820	-0.096557	0.773924	0.635130	-1.000000	-1.000000	-1.000000	-1.000000	-1.000000	-1.000000	-1.000000	13.724138	0.000000	-1.000000	-1.000000	363086.000000	1772914662.798182
3710.070000	90941.535000	-10736.595000	-25131.735000	0.000000	0.000000	0.000000	0.000000	-29.237714	-27.140438	-24.993546	-30.649526	0.000000	0.000000	-0.000000	-0.000000	-17.350620	-5.569900	-6.210820	-0.096557	0.773924	0.635130	-1.000000	-1.000000	-1.000000	-1.000000	-1.000000	-1.000000	-1.000000	13.724138	0.000000	-1.000000	-1.000000	363087.000000	1772914662.798185
3728.880000	90967.545000	-10723.905000	-25111.395000	0.000000	0.000000	0.000000	0.000000	0.492051	3.457249	-5.292958	-2.534437	-0.000000	0.000000	-0.000000	-0.000000	-17.350620	-5.569900	-6.210820	-0.096557	0.773924	0.635130	-1.000000	-1.000000	-1.000000	-1.000000	-1.000000	-1.000000	-1.000000	13.724138	0.000000	-1.000000	-1.000000	363088.000000	1772914662.802265
3723.705000	90971.505000	-10726.560000	-25112.970000	0.000000	0.000000	0.000000	0.000000	30.726053	31.760063	17.793719	27.264400	-0.000000	0.000000	-0.000000	-0.000000	-17.350620	-5.569900	-6.210820	-0.096557	0.773924	0.635130	-1.000000	-1.000000	-1.000000	-1.000000	-1.000000	-1.000000	-1.000000	13.724138	0.000000	-1.000000	-1.000000	363089.000000	1772914662.802268
3709.440000	90951.030000	-10730.970000	-25121.070000	0.000000	0.000000	0.000000	0.000000	44.327691	42.679212	31.260609	42.511275	-0.000000	0.000000	-0.000000	-0.000000	-17.350620	-5.569900	-6.210820	-0.096557	0.773924	0.635130	-1.000000	-1.000000	-1.000000	-1.000000	-1.000000	-1.000000	-1.000000	13.724138	0.000000	-1.000000	-1.000000	363090.000000	1772914662.806375
3701.835000	90918.405000	-10727.100000	-25126.785000	0.000000	0.000000	0.000000	0.000000	35.115883	30.715298	29.054417	36.371426	-0.000000	0.000000	-0.000000	-0.000000	-17.350620	-5.569900	-6.210820	-0.096557	0.773924	0.635130	-1.000000	-1.000000	-1.000000	-1.000000	-1.000000	-1.000000	-1.000000	13.724138	0.000000	-1.000000	-1.000000	363091.000000	1772914662.806378
3692.250000	90888.615000	-10731.690000	-25138.215000	0.000000	0.000000	0.000000	0.000000	10.688962	2.778804	14.878159	14.605849	-0.000000	0.000000	-0.000000	-0.000000	-19.395460	-7.996240	-4.745860	-0.096435	0.775755	0.637327	-1.000000	-1.000000	-1.000000	-1.000000	-1.000000	-1.000000	-1.000000	13.724138	0.000000	-1.000000	-1.000000	363092.000000	1772914662.810134
3681.000000	90881.100000	-10743.975000	-25149.150000	0.000000	0.000000	0.000000	0.000000	-14.643615	-25.814132	-2.654570	-10.189316	-0.000000	0.000000	-0.000000	-0.000000	-19.395460	-7.996240	-4.745860	-0.096435	0.775755	0.637327	-1.000000	-1.000000	-1.000000	-1.000000	-1.000000	-1.000000	-1.000000	13.724138	0.000000	-1.000000	-1.000000	363093.000000	1772914662.810136
3695.760000	90891.810000	-10737.090000	-25135.830000	0.000000	0.000000	0.000000	0.000000	-29.057267	-39.788454	-15.913968	-26.427356	-0.000000	0.000000	-0.000000	-0.000000	-19.395460	-7.996240	-4.745860	-0.096435	0.775755	0.637327	-1.000000	-1.000000	-1.000000	-1.000000	-1.000000	-1.000000	-1.000000	13.724138	0.000000	-1.000000	-1.000000	363094.000000	1772914662.814247
3716.730000	90921.735000	-10726.155000	-25115.805000	0.000000	0.000000	0.000000	0.000000	-27.610692	-32.141963	-20.337988	-27.930322	-0.000000	0.000000	-0.000000	-0.000000	-19.395460	-7.996240	-4.745860	-0.096435	0.775755	0.637327	-1.000000	-1.000000	-1.000000	-1.000000	-1.000000	-1.000000	-1.000000	13.724138	0.000000	-1.000000	-1.000000	363095.000000	1772914662.814250
3752.280000	90952.065000	-10699.740000	-25082.640000	0.000000	0.000000	0.000000	0.000000	-12.743009	-7.505178	-14.990679	-15.556167	-0.000000	0.000000	-0.000000	-0.000000	-19.395460	-7.996240	-4.745860	-0.096435	0.775755	0.637327	-1.000000	-1.000000	-1.000000	-1.000000	-1.000000	-1.000000	-1.000000	13.724138	0.000000	-1.000000	-1.000000	363096.000000	1772914662.818224
3771.540000	90966.510000	-10683.225000	-25065.090000	0.000000	0.000000	0.000000	0.000000	7.290598	20.775770	-3.056620	3.416974	-0.000000	0.000000	-0.000000	-0.000000	-19.395460	-7.996240	-4.745860	-0.096435	0.775755	0.637327	-1.000000	-1.000000	-1.000000	-1.000000	-1.000000	-1.000000	-1.000000	13.724138	0.000000	-1.000000	-1.000000	363097.000000	1772914662.818227
3745.845000	90954.180000	-10701.540000	-25086.690000	0.000000	0.000000	0.000000	0.000000	21.457148	37.646694	8.592851	18.188408	-0.000000	0.000000	-0.000000	-0.000000	-19.395460	-7.996240	-4.745860	-0.096435	0.775755	0.637327	-1.000000	-1.000000	-1.000000	-1.000000	-1.000000	-1.000000	-1.000000	13.724138	0.000000	-1.000000	-1.000000	363098.000000	1772914662.822283
3685.095000	90923.715000	-10751.265000	-25141.275000	0.000000	0.000000	0.000000	0.000000	20.259196	34.102314	11.770873	19.072460	-0.000000	0.000000	-0.000000	-0.000000	-19.395460	-7.996240	-4.745860	-0.096435	0.775755	0.637327	-1.000000	-1.000000	-1.000000	-1.000000	-1.000000	-1.000000	-1.000000	13.724138	0.000000	-1.000000	-1.000000	363099.000000	1772914662.822285
3684.960000	90896.490000	-10744.065000	-25142.490000	0.000000	0.000000	0.000000	0.000000	2.929146	12.167659	3.417519	4.563279	-0.000000	0.000000	-0.000000	-0.000000	-19.395460	-7.996240	-4.745860	-0.096435	0.775755	0.637327	-1.000000	-1.000000	-1.000000	-1.000000	-1.000000	-1.000000	-1.000000	13.724138	0.000000	-1.000000	-1.000000	363100.000000	1772914662.826123
3695.895000	90880.830000	-10730.205000	-25129.170000	0.000000	0.000000	0.000000	0.000000	-18.303540	-15.968199	-9.096461	-14.535618	-0.000000	0.000000	-0.000000	-0.000000	-19.395460	-7.996240	-4.745860	-0.096435	0.775755	0.637327	-1.000000	-1.000000	-1.000000	-1.000000	-1.000000	-1.000000	-1.000000	13.724138	0.000000	-1.000000	-1.000000	363101.000000	1772914662.826125
3708.405000	90889.920000	-10723.680000	-25113.465000	0.000000	0.000000	0.000000	0.000000	-27.201481	-34.840980	-14.254429	-23.100026	-0.000000	0.000000	-0.000000	-0.000000	-17.869460	-8.042020	-5.600420	-0.093384	0.769712	0.640623	-1.000000	-1.000000	-1.000000	-1.000000	-1.000000	-1.000000	-1.000000	13.724138	0.000000	-1.000000	-1.000000	363102.000000	1772914662.831966
3713.670000	90921.105000	-10729.080000	-25108.065000	0.000000	0.000000	0.000000	0.000000	-18.024283	-34.308837	-8.283399	-15.293312	-0.000000	0.000000	-0.000000	-0.000000	-17.869460	-8.042020	-5.600420	-0.093384	0.769712	0.640623	-1.000000	-1.000000	-1.000000	-1.000000	-1.000000	-1.000000	-1.000000	13.724138	0.000000	-1.000000	-1.000000	363103.000000	1772914662.831970
3715.605000	90947.970000	-10735.785000	-25109.100000	0.000000	0.000000	0.000000	0.000000	1.418386	-14.964167	2.788902	1.860912	-0.000000	0.000000	-0.000000	-0.000000	-17.869460	-8.042020	-5.600420	-0.093384	0.769712	0.640623	-1.000000	-1.000000	-1.000000	-1.000000	-1.000000	-1.000000	-1.000000	13.724138	0.000000	-1.000000	-1.000000	363104.000000	1772914662.834879
3729.195000	90966.060000	-10724.580000	-25094.475000	0.000000	0.000000	0.000000	0.000000	18.554487	12.151030	10.977843	16.622991	-0.000000	0.000000	-0.000000	-0.000000	-17.869460	-8.042020	-5.600420	-0.093384	0.769712	0.640623	-1.000000	-1.000000	-1.000000	-1.000000	-1.000000	-1.000000	-1.000000	13.724138	0.000000	-1.000000	-1.000000	363105.000000	1772914662.834882
3725.280000	90960.480000	-10724.940000	-25090.695000	0.000000	0.000000	0.000000	0.000000	25.239428	31.859280	12.998880	21.856610	-0.000000	0.000000	-0.000000	-0.000000	-17.869460	-8.042020	-5.600420	-0.093384	0.769712	0.640623	-1.000000	-1.000000	-1.000000	-1.000000	-1.000000	-1.000000	-1.000000	13.724138	0.000000	-1.000000	-1.000000	363106.000000	1772914662.838267
3713.715000	90931.815000	-10729.980000	-25098.750000	0.000000	0.000000	0.000000	0.000000	20.141992	33.414801	9.865404	17.138119	-0.000000	0.000000	-0.000000	-0.000000	-17.869460	-8.042020	-5.600420	-0.093384	0.769712	0.640623	-1.000000	-1.000000	-1.000000	-1.000000	-1.000000	-1.000000	-1.000000	13.724138	0.000000	-1.000000	-1.000000	363107.000000	1772914662.838270
3720.195000	90897.435000	-10714.815000	-25091.730000	0.000000	0.000000	0.000000	0.000000	7.171422	16.087632	4.125928	6.119792	-0.000000	0.000000	-0.000000	-0.000000	-17.869460	-8.042020	-5.600420	-0.093384	0.769712	0.640623	-1.000000	-1.000000	-1.000000	-1.000000	-1.000000	-1.000000	-1.000000	13.724138	0.000000	-1.000000	-1.000000	363108.000000	1772914662.849638
3711.375000	90876.420000	-10720.305000	-25109.280000	0.000000	0.000000	0.000000	0.000000	-6.689931	-10.512564	-1.261506	-5.881246	-0.000000	0.000000	-0.000000	-0.000000	-17.869460	-8.042020	-5.600420	-0.093384	0.769712	0.640623	-1.000000	-1.000000	-1.000000	-1.000000	-1.000000	-1.000000	-1.000000	13.724138	0.000000	-1.000000	-1.000000	363109.000000	1772914662.849641
3693.780000	90876.870000	-10741.815000	-25123.905000	0.000000	0.000000	0.000000	0.000000	-15.642281	-31.528066	-4.953381	-14.622445	-0.000000	0.000000	-0.000000	-0.000000	-17.869460	-8.042020	-5.600420	-0.093384	0.769712	0.640623	-1.000000	-1.000000	-1.000000	-1.000000	-1.000000	-1.000000	-1.000000	13.724138	0.000000	-1.000000	-1.000000	363110.000000	1772914662.849645
3705.885000	90896.895000	-10742.220000	-25121.115000	0.000000	0.000000	0.000000	0.000000	-17.696863	-35.175750	-7.697349	-18.034795	-0.000000	0.000000	-0.000000	-0.000000	-17.869460	-8.042020	-5.600420	-0.093384	0.769712	0.640623	-1.000000	-1.000000	-1.000000	-1.000000	-1.000000	-1.000000	-1.000000	13.724138	0.000000	-1.000000	-1.000000	363111.000000	1772914662.849647
3720.510000	90926.775000	-10741.545000	-25117.830000	0.000000	0.000000	0.000000	0.000000	-12.885914	-19.394288	-9.218094	-15.081767	-0.000000	0.000000	-0.000000	-0.000000	-15.244740	-6.073480	-6.195560	-0.089721	0.761717	0.644285	-1.000000	-1.000000	-1.000000	-1.000000	-1.000000	-1.000000	-1.000000	13.724138	0.000000	-1.000000	-1.000000	363112.000000	1772914662.850299
3752.910000	90953.280000	-10713.600000	-25076.610000	0.000000	0.000000	0.000000	0.000000	-2.374072	7.288249	-7.263566	-5.784156	-0.000000	0.000000	-0.000000	-0.000000	-15.244740	-6.073480	-6.195560	-0.089721	0.761717	0.644285	-1.000000	-1.000000	-1.000000	-1.000000	-1.000000	-1.000000	-1.000000	13.724138	0.000000	-1.000000	-1.000000	363113.000000	1772914662.850302
3795.435000	90955.395000	-10664.955000	-25024.500000	0.000000	0.000000	0.000000	0.000000	10.707598	30.612599	0.061729	8.246442	-0.000000	0.000000	-0.000000	-0.000000	-15.244740	-6.073480	-6.195560	-0.089721	0.761717	0.644285	-1.000000	-1.000000	-1.000000	-1.000000	-1.000000	-1.000000	-1.000000	13.724138	0.000000	-1.000000	-1.000000	363114.000000	1772914662.854234
3778.425000	90934.740000	-10669.320000	-25036.965000	0.000000	0.000000	0.000000	0.000000	20.774468	38.011982	10.916405	22.068070	-0.000000	0.000000	-0.000000	-0.000000	-15.244740	-6.073480	-6.195560	-0.089721	0.761717	0.644285	-1.000000	-1.000000	-1.000000	-1.000000	-1.000000	-1.000000	-1.000000	13.724138	0.000000	-1.000000	-1.000000	363115.000000	1772914662.854237
3732.030000	90903.015000	-10703.070000	-25085.970000	0.000000	0.000000	0.000000	0.000000	20.200922	25.240572	17.542550	26.031760	-0.000000	0.000000	-0.000000	-0.000000	-15.244740	-6.073480	-6.195560	-0.089721	0.761717	0.644285	-1.000000	-1.000000	-1.000000	-1.000000	-1.000000	-1.000000	-1.000000	13.724138	0.000000	-1.000000	-1.000000	363116.000000	1772914662.858192
3686.310000	90875.925000	-10743.255000	-25126.740000	0.000000	0.000000	0.000000	0.000000	4.794952	-1.043485	11.582169	12.723095	-0.000000	0.000000	-0.000000	-0.000000	-15.244740	-6.073480	-6.195560	-0.089721	0.761717	0.644285	-1.000000	-1.000000	-1.000000	-1.000000	-1.000000	-1.000000	-1.000000	13.724138	0.000000	-1.000000	-1.000000	363117.000000	1772914662.858195
3645.000000	90866.205000	-10798.875000	-25177.545000	0.000000	0.000000	0.000000	0.000000	-19.413345	-26.785761	-6.818985	-13.338913	-0.000000	0.000000	-0.000000	-0.000000	-15.244740	-6.073480	-6.195560	-0.089721	0.761717	0.644285	-1.000000	-1.000000	-1.000000	-1.000000	-1.000000	-1.000000	-1.000000	13.724138	0.000000	-1.000000	-1.000000	363118.000000	1772914662.862234
3685.005000	90883.935000	-10763.415000	-25139.835000	0.000000	0.000000	0.000000	0.000000	-37.360872	-38.201885	-26.548347	-36.202185	-0.000000	0.000000	-0.000000	-0.000000	-15.244740	-6.073480	-6.195560	-0.089721	0.761717	0.644285	-1.000000	-1.000000	-1.000000	-1.000000	-1.000000	-1.000000	-1.000000	13.724138	0.000000	-1.000000	-1.000000	363119.000000	1772914662.862237
3783.150000	90918.855000	-10673.190000	-25035.840000	0.000000	0.000000	0.000000	0.000000	-33.301723	-29.048583	-30.812215	-37.529349	-0.000000	0.000000	-0.000000	-0.000000	-15.244740	-6.073480	-6.195560	-0.089721	0.761717	0.644285	-1.000000	-1.000000	-1.000000	-1.000000	-1.000000	-1.000000	-1.000000	13.724138	0.000000	-1.000000	-1.000000	363120.000000	1772914662.867693
3794.760000	90945.315000	-10670.310000	-25022.745000	0.000000	0.000000	0.000000	0.000000	-3.931386	-4.091893	-11.131020	-10.975436	-0.000000	0.000000	-0.000000	-0.000000	-15.244740	-6.073480	-6.195560	-0.089721	0.761717	0.644285	-1.000000	-1.000000	-1.000000	-1.000000	-1.000000	-1.000000	-1.000000	13.724138	0.000000	-1.000000	-1.000000	363121.000000	1772914662.867697
3718.575000	90949.230000	-10748.970000	-25099.290000	0.000000	0.000000	0.000000	0.000000	31.718747	22.922172	18.697570	25.653815	-0.000000	0.000000	-0.000000	-0.000000	-15.031100	-3.952340	-7.279020	-0.086242	0.760862	0.646727	-1.000000	-1.000000	-1.000000	-1.000000	-1.000000	-1.000000	-1.000000	13.724138	0.000000	-1.000000	-1.000000	363122.000000	1772914662.870266
3674.385000	90931.185000	-10785.015000	-25144.650000	0.000000	0.000000	0.000000	0.000000	44.915100	36.753205	32.560489	42.194827	-0.000000	0.000000	-0.000000	-0.000000	-15.031100	-3.952340	-7.279020	-0.086242	0.760862	0.646727	-1.000000	-1.000000	-1.000000	-1.000000	-1.000000	-1.000000	-1.000000	13.724138	0.000000	-1.000000	-1.000000	363123.000000	1772914662.870270
3696.435000	90893.385000	-10746.405000	-25111.620000	0.000000	0.000000	0.000000	0.000000	26.382601	29.595616	20.871244	27.185847	-0.000000	0.000000	-0.000000	-0.000000	-15.031100	-3.952340	-7.279020	-0.086242	0.760862	0.646727	-1.000000	-1.000000	-1.000000	-1.000000	-1.000000	-1.000000	-1.000000	13.724138	0.000000	-1.000000	-1.000000	363124.000000	1772914662.874156
3700.305000	90859.950000	-10735.515000	-25105.185000	0.000000	0.000000	0.000000	0.000000	-5.203503	5.527615	-0.714372	-1.820077	-0.000000	0.000000	-0.000000	-0.000000	-15.031100	-3.952340	-7.279020	-0.086242	0.760862	0.646727	-1.000000	-1.000000	-1.000000	-1.000000	-1.000000	-1.000000	-1.000000	13.724138	0.000000	-1.000000	-1.000000	363125.000000	1772914662.874160
3696.210000	90842.895000	-10746.000000	-25115.445000	0.000000	0.000000	0.000000	0.000000	-25.591101	-21.925658	-13.054067	-21.144193	-0.000000	0.000000	-0.000000	-0.000000	-15.031100	-3.952340	-7.279020	-0.086242	0.760862	0.646727	-1.000000	-1.000000	-1.000000	-1.000000	-1.000000	-1.000000	-1.000000	13.724138	0.000000	-1.000000	-1.000000	363126.000000	1772914662.878239
3686.985000	90853.515000	-10760.715000	-25125.795000	0.000000	0.000000	0.000000	0.000000	-26.189262	-37.345656	-12.260054	-22.866780	-0.000000	0.000000	-0.000000	-0.000000	-15.031100	-3.952340	-7.279020	-0.086242	0.760862	0.646727	-1.000000	-1.000000	-1.000000	-1.000000	-1.000000	-1.000000	-1.000000	13.724138	0.000000	-1.000000	-1.000000	363127.000000	1772914662.878242
3701.745000	90883.170000	-10751.760000	-25107.615000	0.000000	0.000000	0.000000	0.000000	-13.334293	-31.924046	-5.452546	-12.897716	-0.000000	0.000000	-0.000000	-0.000000	-15.031100	-3.952340	-7.279020	-0.086242	0.760862	0.646727	-1.000000	-1.000000	-1.000000	-1.000000	-1.000000	-1.000000	-1.000000	13.724138	0.000000	-1.000000	-1.000000	363128.000000	1772914662.882266
3745.080000	90920.205000	-10717.470000	-25066.350000	0.000000	0.000000	0.000000	0.000000	3.450351	-8.216717	1.564216	1.075562	-0.000000	0.000000	-0.000000	-0.000000	-15.031100	-3.952340	-7.279020	-0.086242	0.760862	0.646727	-1.000000	-1.000000	-1.000000	-1.000000	-1.000000	-1.000000	-1.000000	13.724138	0.000000	-1.000000	-1.000000	363129.000000	1772914662.882269
3752.820000	90939.375000	-10714.770000	-25060.140000	0.000000	0.000000	0.000000	0.000000	17.656281	21.242960	7.511883	14.023067	-0.000000	0.000000	-0.000000	-0.000000	-15.031100	-3.952340	-7.279020	-0.086242	0.760862	0.646727	-1.000000	-1.000000	-1.000000	-1.000000	-1.000000	-1.000000	-1.000000	13.724138	0.000000	-1.000000	-1.000000	363130.000000	1772914662.886256
3721.905000	90928.845000	-10743.840000	-25094.520000	0.000000	0.000000	0.000000	0.000000	23.590901	40.431043	10.438815	20.314410	-0.000000	0.000000	-0.000000	-0.000000	-15.031100	-3.952340	-7.279020	-0.086242	0.760862	0.646727	-1.000000	-1.000000	-1.000000	-1.000000	-1.000000	-1.000000	-1.000000	13.724138	0.000000	-1.000000	-1.000000	363131.000000	1772914662.886258
3713.895000	90902.430000	-10738.440000	-25093.620000	0.000000	0.000000	0.000000	0.000000	16.729706	38.431741	6.967009	14.874785	-0.000000	0.000000	-0.000000	-0.000000	-15.092140	-2.990960	-7.965720	-0.083801	0.762205	0.650572	-1.000000	-1.000000	-1.000000	-1.000000	-1.000000	-1.000000	-1.000000	13.724138	0.000000	-1.000000	-1.000000	363132.000000	1772914662.890322
3699.810000	90874.305000	-10744.560000	-25102.305000	0.000000	0.000000	0.000000	0.000000	-0.294048	15.961051	-1.855358	0.076437	-0.000000	0.000000	-0.000000	-0.000000	-15.092140	-2.990960	-7.965720	-0.083801	0.762205	0.650572	-1.000000	-1.000000	-1.000000	-1.000000	-1.000000	-1.000000	-1.000000	13.724138	0.000000	-1.000000	-1.000000	363133.000000	1772914662.890324
3713.985000	90850.545000	-10726.155000	-25085.700000	0.000000	0.000000	0.000000	0.000000	-17.295107	-14.877099	-9.846170	-14.365157	-0.000000	0.000000	-0.000000	-0.000000	-15.092140	-2.990960	-7.965720	-0.083801	0.762205	0.650572	-1.000000	-1.000000	-1.000000	-1.000000	-1.000000	-1.000000	-1.000000	13.724138	0.000000	-1.000000	-1.000000	363134.000000	1772914662.894168
3719.070000	90850.995000	-10719.720000	-25079.355000	0.000000	0.000000	0.000000	0.000000	-24.122068	-37.832332	-11.480839	-19.551486	-0.000000	0.000000	-0.000000	-0.000000	-15.092140	-2.990960	-7.965720	-0.083801	0.762205	0.650572	-1.000000	-1.000000	-1.000000	-1.000000	-1.000000	-1.000000	-1.000000	13.724138	0.000000	-1.000000	-1.000000	363135.000000	1772914662.894171
3703.185000	90871.785000	-10744.785000	-25098.030000	0.000000	0.000000	0.000000	0.000000	-18.311035	-41.310543	-6.880650	-14.200759	-0.000000	0.000000	-0.000000	-0.000000	-15.092140	-2.990960	-7.965720	-0.083801	0.762205	0.650572	-1.000000	-1.000000	-1.000000	-1.000000	-1.000000	-1.000000	-1.000000	13.724138	0.000000	-1.000000	-1.000000	363136.000000	1772914662.898268
3704.310000	90902.700000	-10760.400000	-25103.430000	0.000000	0.000000	0.000000	0.000000	-5.902143	-23.945857	-1.532206	-4.473897	-0.000000	0.000000	-0.000000	-0.000000	-15.092140	-2.990960	-7.965720	-0.083801	0.762205	0.650572	-1.000000	-1.000000	-1.000000	-1.000000	-1.000000	-1.000000	-1.000000	13.724138	0.000000	-1.000000	-1.000000	363137.000000	1772914662.898271
3750.750000	90928.080000	-10724.895000	-25058.475000	0.000000	0.000000	0.000000	0.000000	6.137753	4.996595	0.779800	3.771282	-0.000000	0.000000	-0.000000	-0.000000	-15.092140	-2.990960	-7.965720	-0.083801	0.762205	0.650572	-1.000000	-1.000000	-1.000000	-1.000000	-1.000000	-1.000000	-1.000000	13.724138	0.000000	-1.000000	-1.000000	363138.000000	1772914662.902339
3754.035000	90931.500000	-10717.605000	-25051.950000	0.000000	0.000000	0.000000	0.000000	15.275369	30.489712	2.379494	10.020563	-0.000000	0.000000	-0.000000	-0.000000	-15.092140	-2.990960	-7.965720	-0.083801	0.762205	0.650572	-1.000000	-1.000000	-1.000000	-1.000000	-1.000000	-1.000000	-1.000000	13.724138	0.000000	-1.000000	-1.000000	363139.000000	1772914662.902341
3721.365000	90910.125000	-10741.185000	-25081.020000	0.000000	0.000000	0.000000	0.000000	19.140803	39.416756	5.349811	13.731730	-0.000000	0.000000	-0.000000	-0.000000	-15.092140	-2.990960	-7.965720	-0.083801	0.762205	0.650572	-1.000000	-1.000000	-1.000000	-1.000000	-1.000000	-1.000000	-1.000000	13.724138	0.000000	-1.000000	-1.000000	363140.000000	1772914662.906066
3707.235000	90878.985000	-10744.785000	-25089.345000	0.000000	0.000000	0.000000	0.000000	13.714838	27.341736	6.671556	11.122294	-0.000000	0.000000	-0.000000	-0.000000	-15.092140	-2.990960	-7.965720	-0.083801	0.762205	0.650572	-1.000000	-1.000000	-1.000000	-1.000000	-1.000000	-1.000000	-1.000000	13.724138	0.000000	-1.000000	-1.000000	363141.000000	1772914662.906069
3713.355000	90854.280000	-10734.120000	-25081.380000	0.000000	0.000000	0.000000	0.000000	0.284900	1.061191	3.971028	1.881738	-0.000000	0.000000	-0.000000	-0.000000	-15.885660	-1.678600	-8.377740	-0.085144	0.766111	0.653807	-1.000000	-1.000000	-1.000000	-1.000000	-1.000000	-1.000000	-1.000000	13.724138	0.000000	-1.000000	-1.000000	363142.000000	1772914662.910221
3716.640000	90847.665000	-10730.295000	-25077.870000	0.000000	0.000000	0.000000	0.000000	-12.513408	-24.983206	-0.172238	-7.730837	-0.000000	0.000000	-0.000000	-0.000000	-15.885660	-1.678600	-8.377740	-0.085144	0.766111	0.653807	-1.000000	-1.000000	-1.000000	-1.000000	-1.000000	-1.000000	-1.000000	13.724138	0.000000	-1.000000	-1.000000	363143.000000	1772914662.910223
3714.165000	90855.585000	-10738.890000	-25086.195000	0.000000	0.000000	0.000000	0.000000	-16.785219	-36.891250	-2.461330	-11.589561	-0.000000	0.000000	-0.000000	-0.000000	-15.885660	-1.678600	-8.377740	-0.085144	0.766111	0.653807	-1.000000	-1.000000	-1.000000	-1.000000	-1.000000	-1.000000	-1.000000	13.724138	0.000000	-1.000000	-1.000000	363144.000000	1772914662.914223
3714.300000	90882.720000	-10746.855000	-25086.465000	0.000000	0.000000	0.000000	0.000000	-11.839743	-28.936288	-2.850315	-9.148270	-0.000000	0.000000	-0.000000	-0.000000	-15.885660	-1.678600	-8.377740	-0.085144	0.766111	0.653807	-1.000000	-1.000000	-1.000000	-1.000000	-1.000000	-1.000000	-1.000000	13.724138	0.000000	-1.000000	-1.000000	363145.000000	1772914662.914226
3739.950000	90909.360000	-10730.205000	-25059.960000	0.000000	0.000000	0.000000	0.000000	-2.056760	-5.955068	-2.549967	-3.117732	-0.000000	0.000000	-0.000000	-0.000000	-15.885660	-1.678600	-8.377740	-0.085144	0.766111	0.653807	-1.000000	-1.000000	-1.000000	-1.000000	-1.000000	-1.000000	-1.000000	13.724138	0.000000	-1.000000	-1.000000	363146.000000	1772914662.918227
3726.180000	90917.235000	-10749.105000	-25077.285000	0.000000	0.000000	0.000000	0.000000	7.547941	19.690357	-1.682687	3.756943	-0.000000	0.000000	-0.000000	-0.000000	-15.885660	-1.678600	-8.377740	-0.085144	0.766111	0.653807	-1.000000	-1.000000	-1.000000	-1.000000	-1.000000	-1.000000	-1.000000	13.724138	0.000000	-1.000000	-1.000000	363147.000000	1772914662.918230
3710.745000	90903.780000	-10759.365000	-25092.720000	0.000000	0.000000	0.000000	0.000000	12.218817	34.359852	-0.839179	7.876027	-0.000000	0.000000	-0.000000	-0.000000	-15.885660	-1.678600	-8.377740	-0.085144	0.766111	0.653807	-1.000000	-1.000000	-1.000000	-1.000000	-1.000000	-1.000000	-1.000000	13.724138	0.000000	-1.000000	-1.000000	363148.000000	1772914662.922245
3701.160000	90878.805000	-10756.890000	-25093.395000	0.000000	0.000000	0.000000	0.000000	9.168584	30.345556	-1.030015	6.349659	-0.000000	0.000000	-0.000000	-0.000000	-15.885660	-1.678600	-8.377740	-0.085144	0.766111	0.653807	-1.000000	-1.000000	-1.000000	-1.000000	-1.000000	-1.000000	-1.000000	13.724138	0.000000	-1.000000	-1.000000	363149.000000	1772914662.922248
3701.385000	90854.100000	-10746.495000	-25088.310000	0.000000	0.000000	0.000000	0.000000	0.838790	10.291058	-1.214971	1.015075	-0.000000	0.000000	-0.000000	-0.000000	-15.885660	-1.678600	-8.377740	-0.085144	0.766111	0.653807	-1.000000	-1.000000	-1.000000	-1.000000	-1.000000	-1.000000	-1.000000	13.724138	0.000000	-1.000000	-1.000000	363150.000000	1772914662.926186
3708.225000	90844.830000	-10738.845000	-25083.630000	0.000000	0.000000	0.000000	0.000000	-6.494290	-14.383917	0.595232	-3.158125	-0.000000	0.000000	-0.000000	-0.000000	-15.885660	-1.678600	-8.377740	-0.085144	0.766111	0.653807	-1.000000	-1.000000	-1.000000	-1.000000	-1.000000	-1.000000	-1.000000	13.724138	0.000000	-1.000000	-1.000000	363151.000000	1772914662.926188
3726.630000	90855.945000	-10729.935000	-25070.625000	0.000000	0.000000	0.000000	0.000000	-7.744749	-30.064849	4.301679	-3.067020	-0.000000	0.000000	-0.000000	-0.000000	-17.350620	-3.067260	-7.538440	-0.087646	0.769651	0.657469	-1.000000	-1.000000	-1.000000	-1.000000	-1.000000	-1.000000	-1.000000	13.724138	0.000000	-1.000000	-1.000000	363152.000000	1772914662.930323
3742.920000	90883.035000	-10722.780000	-25054.335000	0.000000	0.000000	0.000000	0.000000	-2.287356	-28.460374	7.596732	0.842535	-0.000000	0.000000	-0.000000	-0.000000	-17.350620	-3.067260	-7.538440	-0.087646	0.769651	0.657469	-1.000000	-1.000000	-1.000000	-1.000000	-1.000000	-1.000000	-1.000000	13.724138	0.000000	-1.000000	-1.000000	363153.000000	1772914662.930327
3762.675000	90907.110000	-10709.505000	-25037.955000	0.000000	0.000000	0.000000	0.000000	6.198055	-11.039504	8.262407	5.935234	-0.000000	0.000000	-0.000000	-0.000000	-17.350620	-3.067260	-7.538440	-0.087646	0.769651	0.657469	-1.000000	-1.000000	-1.000000	-1.000000	-1.000000	-1.000000	-1.000000	13.724138	0.000000	-1.000000	-1.000000	363154.000000	1772914662.934323
3765.375000	90922.005000	-10708.470000	-25031.835000	0.000000	0.000000	0.000000	0.000000	12.265116	11.969308	5.757938	9.013629	-0.000000	0.000000	-0.000000	-0.000000	-17.350620	-3.067260	-7.538440	-0.087646	0.769651	0.657469	-1.000000	-1.000000	-1.000000	-1.000000	-1.000000	-1.000000	-1.000000	13.724138	0.000000	-1.000000	-1.000000	363155.000000	1772914662.934326
3743.415000	90913.455000	-10724.715000	-25044.840000	0.000000	0.000000	0.000000	0.000000	11.376596	27.524566	0.562107	7.422039	-0.000000	0.000000	-0.000000	-0.000000	-17.350620	-3.067260	-7.538440	-0.087646	0.769651	0.657469	-1.000000	-1.000000	-1.000000	-1.000000	-1.000000	-1.000000	-1.000000	13.724138	0.000000	-1.000000	-1.000000	363156.000000	1772914662.940449
3716.685000	90889.920000	-10738.080000	-25054.020000	0.000000	0.000000	0.000000	0.000000	2.059451	27.029896	-6.534505	0.405237	-0.000000	0.000000	-0.000000	-0.000000	-17.350620	-3.067260	-7.538440	-0.087646	0.769651	0.657469	-1.000000	-1.000000	-1.000000	-1.000000	-1.000000	-1.000000	-1.000000	13.724138	0.000000	-1.000000	-1.000000	363157.000000	1772914662.940452
3721.635000	90861.435000	-10714.770000	-25027.290000	0.000000	0.000000	0.000000	0.000000	-11.722379	10.882626	-12.827109	-8.770749	-0.000000	0.000000	-0.000000	-0.000000	-17.350620	-3.067260	-7.538440	-0.087646	0.769651	0.657469	-1.000000	-1.000000	-1.000000	-1.000000	-1.000000	-1.000000	-1.000000	13.724138	0.000000	-1.000000	-1.000000	363158.000000	1772914662.942243
3744.000000	90845.910000	-10693.170000	-25007.895000	0.000000	0.000000	0.000000	0.000000	-20.986910	-11.828121	-13.443190	-13.529124	-0.000000	0.000000	-0.000000	-0.000000	-17.350620	-3.067260	-7.538440	-0.087646	0.769651	0.657469	-1.000000	-1.000000	-1.000000	-1.000000	-1.000000	-1.000000	-1.000000	13.724138	0.000000	-1.000000	-1.000000	363159.000000	1772914662.942246
3722.940000	90847.215000	-10732.680000	-25068.015000	0.000000	0.000000	0.000000	0.000000	-18.917109	-28.379393	-7.062968	-11.289549	-0.000000	0.000000	-0.000000	-0.000000	-17.350620	-3.067260	-7.538440	-0.087646	0.769651	0.657469	-1.000000	-1.000000	-1.000000	-1.000000	-1.000000	-1.000000	-1.000000	13.724138	0.000000	-1.000000	-1.000000	363160.000000	1772914662.948542
3700.710000	90866.070000	-10777.005000	-25125.390000	0.000000	0.000000	0.000000	0.000000	-8.237145	-29.535960	-0.197441	-8.237184	-0.000000	0.000000	-0.000000	-0.000000	-17.350620	-3.067260	-7.538440	-0.087646	0.769651	0.657469	-1.000000	-1.000000	-1.000000	-1.000000	-1.000000	-1.000000	-1.000000	13.724138	0.000000	-1.000000	-1.000000	363161.000000	1772914662.948544
3703.590000	90893.655000	-10781.730000	-25109.685000	0.000000	0.000000	0.000000	0.000000	2.619356	-14.552607	0.276040	-9.892562	-0.000000	0.000000	-0.000000	-0.000000	-16.206120	-1.846460	-8.560860	-0.088928	0.764463	0.660521	-1.000000	-1.000000	-1.000000	-1.000000	-1.000000	-1.000000	-1.000000	13.724138	0.000000	-1.000000	-1.000000	363162.000000	1772914662.951497
3730.860000	90918.855000	-10751.175000	-25071.615000	0.000000	0.000000	0.000000	0.000000	9.461053	8.742008	-2.965933	-10.645108	-0.000000	0.000000	-0.000000	-0.000000	-16.206120	-1.846460	-8.560860	-0.088928	0.764463	0.660521	-1.000000	-1.000000	-1.000000	-1.000000	-1.000000	-1.000000	-1.000000	13.724138	0.000000	-1.000000	-1.000000	363163.000000	1772914662.951500
3739.095000	90916.875000	-10735.695000	-25062.120000	0.000000	0.000000	0.000000	0.000000	13.769177	28.118243	-1.316147	-1.583593	-0.000000	0.000000	-0.000000	-0.000000	-16.206120	-1.846460	-8.560860	-0.088928	0.764463	0.660521	-1.000000	-1.000000	-1.000000	-1.000000	-1.000000	-1.000000	-1.000000	13.724138	0.000000	-1.000000	-1.000000	363164.000000	1772914662.954209
3723.435000	90896.085000	-10738.935000	-25073.055000	0.000000	0.000000	0.000000	0.000000	16.046050	32.969214	7.680672	15.123910	-0.000000	0.000000	-0.000000	-0.000000	-16.206120	-1.846460	-8.560860	-0.088928	0.764463	0.660521	-1.000000	-1.000000	-1.000000	-1.000000	-1.000000	-1.000000	-1.000000	13.724138	0.000000	-1.000000	-1.000000	363165.000000	1772914662.954211
3688.065000	90864.495000	-10782.045000	-25110.540000	0.000000	0.000000	0.000000	0.000000	13.027044	20.061152	16.373813	26.878698	-0.000000	0.000000	-0.000000	-0.000000	-16.206120	-1.846460	-8.560860	-0.088928	0.764463	0.660521	-1.000000	-1.000000	-1.000000	-1.000000	-1.000000	-1.000000	-1.000000	13.724138	0.000000	-1.000000	-1.000000	363166.000000	1772914662.958174
3673.260000	90840.150000	-10793.880000	-25120.980000	0.000000	0.000000	0.000000	0.000000	2.748298	-4.069408	15.447133	23.814195	-0.000000	0.000000	-0.000000	-0.000000	-16.206120	-1.846460	-8.560860	-0.088928	0.764463	0.660521	-1.000000	-1.000000	-1.000000	-1.000000	-1.000000	-1.000000	-1.000000	13.724138	0.000000	-1.000000	-1.000000	363167.000000	1772914662.958177
3671.055000	90833.895000	-10780.245000	-25117.110000	0.000000	0.000000	0.000000	0.000000	-10.288268	-26.413337	4.816770	8.457628	0.000000	0.000000	-0.000000	-0.000000	-16.206120	-1.846460	-8.560860	-0.088928	0.764463	0.660521	-1.000000	-1.000000	-1.000000	-1.000000	-1.000000	-1.000000	-1.000000	13.724138	0.000000	-1.000000	-1.000000	363168.000000	1772914662.962234
3706.155000	90853.155000	-10758.555000	-25085.880000	0.000000	0.000000	0.000000	0.000000	-17.113034	-34.663172	-5.970889	-7.051192	0.000000	0.000000	-0.000000	-0.000000	-16.206120	-1.846460	-8.560860	-0.088928	0.764463	0.660521	-1.000000	-1.000000	-1.000000	-1.000000	-1.000000	-1.000000	-1.000000	13.724138	0.000000	-1.000000	-1.000000	363169.000000	1772914662.962237
3791.970000	90887.985000	-10689.570000	-25004.655000	0.000000	0.000000	0.000000	0.000000	-10.562968	-23.922994	-7.266604	-10.945809	0.000000	0.000000	-0.000000	-0.000000	-16.206120	-1.846460	-8.560860	-0.088928	0.764463	0.660521	-1.000000	-1.000000	-1.000000	-1.000000	-1.000000	-1.000000	-1.000000	13.724138	0.000000	-1.000000	-1.000000	363170.000000	1772914662.966244
3815.370000	90912.645000	-10669.095000	-24977.790000	0.000000	0.000000	0.000000	0.000000	8.421891	0.380611	2.508000	-0.434527	0.000000	0.000000	-0.000000	-0.000000	-16.206120	-1.846460	-8.560860	-0.088928	0.764463	0.660521	-1.000000	-1.000000	-1.000000	-1.000000	-1.000000	-1.000000	-1.000000	13.724138	0.000000	-1.000000	-1.000000	363171.000000	1772914662.966247
3744.720000	90914.130000	-10741.635000	-25044.255000	0.000000	0.000000	0.000000	0.000000	26.258338	24.869065	13.483311	13.478341	0.000000	0.000000	-0.000000	-0.000000	-15.290520	-0.778260	-10.193680	-0.088440	0.755369	0.661741	-1.000000	-1.000000	-1.000000	-1.000000	-1.000000	-1.000000	-1.000000	13.724138	0.000000	-1.000000	-1.000000	363172.000000	1772914662.970310
3697.605000	90899.460000	-10786.725000	-25092.945000	0.000000	0.000000	0.000000	0.000000	24.462106	35.608619	10.676710	12.998398	0.000000	0.000000	-0.000000	-0.000000	-15.290520	-0.778260	-10.193680	-0.088440	0.755369	0.661741	-1.000000	-1.000000	-1.000000	-1.000000	-1.000000	-1.000000	-1.000000	13.724138	0.000000	-1.000000	-1.000000	363173.000000	1772914662.970312
3697.290000	90867.105000	-10775.565000	-25088.355000	0.000000	0.000000	0.000000	0.000000	-0.223491	26.499463	-8.618997	-6.831843	0.000000	0.000000	-0.000000	-0.000000	-15.290520	-0.778260	-10.193680	-0.088440	0.755369	0.661741	-1.000000	-1.000000	-1.000000	-1.000000	-1.000000	-1.000000	-1.000000	13.724138	0.000000	-1.000000	-1.000000	363174.000000	1772914662.974305
3700.395000	90838.890000	-10759.005000	-25079.760000	0.000000	0.000000	0.000000	0.000000	-29.517135	2.674386	-28.644420	-30.401272	0.000000	0.000000	-0.000000	-0.000000	-15.290520	-0.778260	-10.193680	-0.088440	0.755369	0.661741	-1.000000	-1.000000	-1.000000	-1.000000	-1.000000	-1.000000	-1.000000	13.724138	0.000000	-1.000000	-1.000000	363175.000000	1772914662.974307
3717.585000	90827.235000	-10736.100000	-25060.005000	0.000000	0.000000	0.000000	0.000000	-41.490115	-22.745631	-31.643260	-37.847799	0.000000	0.000000	-0.000000	-0.000000	-15.290520	-0.778260	-10.193680	-0.088440	0.755369	0.661741	-1.000000	-1.000000	-1.000000	-1.000000	-1.000000	-1.000000	-1.000000	13.724138	0.000000	-1.000000	-1.000000	363176.000000	1772914662.978291
3728.115000	90840.105000	-10731.240000	-25053.390000	0.000000	0.000000	0.000000	0.000000	-29.085213	-35.856952	-14.896202	-23.411871	0.000000	0.000000	-0.000000	-0.000000	-15.290520	-0.778260	-10.193680	-0.088440	0.755369	0.661741	-1.000000	-1.000000	-1.000000	-1.000000	-1.000000	-1.000000	-1.000000	13.724138	0.000000	-1.000000	-1.000000	363177.000000	1772914662.978293
3717.945000	90865.710000	-10758.375000	-25071.705000	0.000000	0.000000	0.000000	0.000000	-2.335915	-29.484775	8.921686	2.268014	0.000000	0.000000	-0.000000	-0.000000	-15.290520	-0.778260	-10.193680	-0.088440	0.755369	0.661741	-1.000000	-1.000000	-1.000000	-1.000000	-1.000000	-1.000000	-1.000000	13.724138	0.000000	-1.000000	-1.000000	363178.000000	1772914662.982273
3706.785000	90893.070000	-10779.525000	-25082.595000	0.000000	0.000000	0.000000	0.000000	21.453656	-7.128107	23.444541	22.569090	0.000000	0.000000	-0.000000	-0.000000	-15.290520	-0.778260	-10.193680	-0.088440	0.755369	0.661741	-1.000000	-1.000000	-1.000000	-1.000000	-1.000000	-1.000000	-1.000000	13.724138	0.000000	-1.000000	-1.000000	363179.000000	1772914662.982276
3729.330000	90910.530000	-10759.815000	-25060.050000	0.000000	0.000000	0.000000	0.000000	30.752579	19.137642	21.999062	28.169516	0.000000	0.000000	-0.000000	-0.000000	-15.290520	-0.778260	-10.193680	-0.088440	0.755369	0.661741	-1.000000	-1.000000	-1.000000	-1.000000	-1.000000	-1.000000	-1.000000	13.724138	0.000000	-1.000000	-1.000000	363180.000000	1772914662.986189
3758.310000	90904.005000	-10725.615000	-25034.445000	0.000000	0.000000	0.000000	0.000000	26.467655	35.416483	11.681641	22.232401	0.000000	0.000000	-0.000000	-0.000000	-15.290520	-0.778260	-10.193680	-0.088440	0.755369	0.661741	-1.000000	-1.000000	-1.000000	-1.000000	-1.000000	-1.000000	-1.000000	13.724138	0.000000	-1.000000	-1.000000	363181.000000	1772914662.986191
3768.210000	90879.210000	-10705.365000	-25019.280000	0.000000	0.000000	0.000000	0.000000	16.546439	33.192204	3.913850	13.334940	0.000000	0.000000	-0.000000	-0.000000	-9.171260	0.366240	-5.218920	-0.094482	0.745054	0.667296	-1.000000	-1.000000	-1.000000	-1.000000	-1.000000	-1.000000	-1.000000	13.724138	0.000000	-1.000000	-1.000000	363182.000000	1772914662.990197
3791.070000	90854.100000	-10672.560000	-24978.735000	0.000000	0.000000	0.000000	0.000000	6.845821	13.657891	3.188495	6.775900	0.000000	0.000000	-0.000000	-0.000000	-9.171260	0.366240	-5.218920	-0.094482	0.745054	0.667296	-1.000000	-1.000000	-1.000000	-1.000000	-1.000000	-1.000000	-1.000000	13.724138	0.000000	-1.000000	-1.000000	363183.000000	1772914662.990200
3785.895000	90836.145000	-10668.240000	-24975.990000	0.000000	0.000000	0.000000	0.000000	-1.280377	-12.783803	5.821659	2.945377	0.000000	0.000000	-0.000000	-0.000000	-9.171260	0.366240	-5.218920	-0.094482	0.745054	0.667296	-1.000000	-1.000000	-1.000000	-1.000000	-1.000000	-1.000000	-1.000000	13.724138	0.000000	-1.000000	-1.000000	363184.000000	1772914662.994315
3731.670000	90835.290000	-10719.495000	-25031.655000	0.000000	0.000000	0.000000	0.000000	-9.574133	-32.239150	4.514378	-1.936130	0.000000	0.000000	-0.000000	-0.000000	-9.171260	0.366240	-5.218920	-0.094482	0.745054	0.667296	-1.000000	-1.000000	-1.000000	-1.000000	-1.000000	-1.000000	-1.000000	13.724138	0.000000	-1.000000	-1.000000	363185.000000	1772914662.994318
3745.935000	90857.520000	-10713.645000	-25016.490000	0.000000	0.000000	0.000000	0.000000	-19.386343	-34.819778	-5.400720	-11.816469	0.000000	0.000000	-0.000000	-0.000000	-9.171260	0.366240	-5.218920	-0.094482	0.745054	0.667296	-1.000000	-1.000000	-1.000000	-1.000000	-1.000000	-1.000000	-1.000000	13.724138	0.000000	-1.000000	-1.000000	363186.000000	1772914662.998224
3750.795000	90885.060000	-10728.180000	-25012.845000	0.000000	0.000000	0.000000	0.000000	-26.344502	-19.471718	-19.609764	-22.988773	0.000000	0.000000	-0.000000	-0.000000	-9.171260	0.366240	-5.218920	-0.094482	0.745054	0.667296	-1.000000	-1.000000	-1.000000	-1.000000	-1.000000	-1.000000	-1.000000	13.724138	0.000000	-1.000000	-1.000000	363187.000000	1772914662.998227
