Channel1	Channel2	Channel3	Channel4	Channel5	Channel6	Channel7	Channel8	FilteredChannel1	FilteredChannel2	FilteredChannel3	FilteredChannel4	FilteredChannel5	FilteredChannel6	FilteredChannel7	FilteredChannel8	GyroX	GyroY	GyroZ	AccX	AccY	AccZ	PPG1	PPG2	rawPPG1	rawPPG2	rawPPG3	Hr	Hrv	Battery	Trigger	PhysicalTrigger	AutoTrigger	NumMeasurements	Timestamp
4409.460000	90865.710000	-11204.865000	-24900.525000	0.000000	0.000000	0.000000	0.000000	17.279910	20.587662	12.802314	13.374225	-0.000000	0.000000	-0.000000	-0.000000	-3.937080	-2.166920	-0.228900	-0.111999	0.831358	0.552306	-1.000000	-1.000000	-1.000000	-1.000000	-1.000000	-1.000000	-1.000000	12.551724	0.000000	-1.000000	-1.000000	374787.000000	1772914686.205423
4385.160000	90840.915000	-11221.425000	-24920.775000	0.000000	0.000000	0.000000	0.000000	5.695806	3.262140	7.567515	5.634183	-0.000000	0.000000	-0.000000	-0.000000	-3.937080	-2.166920	-0.228900	-0.111999	0.831358	0.552306	-1.000000	-1.000000	-1.000000	-1.000000	-1.000000	-1.000000	-1.000000	12.551724	0.000000	-1.000000	-1.000000	374788.000000	1772914686.209516
4353.930000	90827.910000	-11252.250000	-24949.620000	0.000000	0.000000	0.000000	0.000000	-8.974278	-16.495650	-1.559193	-5.251176	-0.000000	0.000000	-0.000000	-0.000000	-3.937080	-2.166920	-0.228900	-0.111999	0.831358	0.552306	-1.000000	-1.000000	-1.000000	-1.000000	-1.000000	-1.000000	-1.000000	12.551724	0.000000	-1.000000	-1.000000	374789.000000	1772914686.209518
4368.465000	90834.840000	-11247.975000	-24940.440000	0.000000	0.000000	0.000000	0.000000	-21.298004	-27.690859	-12.276935	-15.799255	-0.000000	0.000000	-0.000000	-0.000000	-3.937080	-2.166920	-0.228900	-0.111999	0.831358	0.552306	-1.000000	-1.000000	-1.000000	-1.000000	-1.000000	-1.000000	-1.000000	12.551724	0.000000	-1.000000	-1.000000	374790.000000	1772914686.213454
4382.730000	90856.260000	-11240.145000	-24926.940000	0.000000	0.000000	0.000000	0.000000	-24.263314	-23.887002	-18.824334	-19.935727	-0.000000	0.000000	-0.000000	-0.000000	-3.937080	-2.166920	-0.228900	-0.111999	0.831358	0.552306	-1.000000	-1.000000	-1.000000	-1.000000	-1.000000	-1.000000	-1.000000	12.551724	0.000000	-1.000000	-1.000000	374791.000000	1772914686.213457
4395.825000	90876.150000	-11233.980000	-24916.950000	0.000000	0.000000	0.000000	0.000000	-14.629890	-6.804323	-16.095100	-13.670189	-0.000000	0.000000	-0.000000	-0.000000	-3.937080	-2.166920	-0.228900	-0.111999	0.831358	0.552306	-1.000000	-1.000000	-1.000000	-1.000000	-1.000000	-1.000000	-1.000000	12.551724	0.000000	-1.000000	-1.000000	374792.000000	1772914686.217477
4408.155000	90889.155000	-11221.650000	-24903.990000	0.000000	0.000000	0.000000	0.000000	2.696827	14.443326	-4.974769	0.108674	-0.000000	0.000000	-0.000000	-0.000000	-3.937080	-2.166920	-0.228900	-0.111999	0.831358	0.552306	-1.000000	-1.000000	-1.000000	-1.000000	-1.000000	-1.000000	-1.000000	12.551724	0.000000	-1.000000	-1.000000	374793.000000	1772914686.217480
4410.990000	90884.520000	-11214.855000	-24895.125000	0.000000	0.000000	0.000000	0.000000	18.001643	28.448030	8.379943	13.680785	-0.000000	0.000000	-0.000000	-0.000000	0.091560	-0.854560	-0.579880	-0.110290	0.824278	0.556578	-1.000000	-1.000000	-1.000000	-1.000000	-1.000000	-1.000000	-1.000000	12.551724	0.000000	-1.000000	-1.000000	374794.000000	1772914686.221521
4387.770000	90866.880000	-11229.300000	-24909.390000	0.000000	0.000000	0.000000	0.000000	23.112226	27.822403	16.848329	19.859004	-0.000000	0.000000	-0.000000	-0.000000	0.091560	-0.854560	-0.579880	-0.110290	0.824278	0.556578	-1.000000	-1.000000	-1.000000	-1.000000	-1.000000	-1.000000	-1.000000	12.551724	0.000000	-1.000000	-1.000000	374795.000000	1772914686.221524
4370.490000	90841.320000	-11237.895000	-24922.620000	0.000000	0.000000	0.000000	0.000000	15.446052	12.961390	16.025649	15.446615	-0.000000	0.000000	-0.000000	-0.000000	0.091560	-0.854560	-0.579880	-0.110290	0.824278	0.556578	-1.000000	-1.000000	-1.000000	-1.000000	-1.000000	-1.000000	-1.000000	12.551724	0.000000	-1.000000	-1.000000	374796.000000	1772914686.225543
4364.370000	90826.740000	-11239.605000	-24924.555000	0.000000	0.000000	0.000000	0.000000	-0.303742	-8.347662	7.024379	3.075122	-0.000000	0.000000	-0.000000	-0.000000	0.091560	-0.854560	-0.579880	-0.110290	0.824278	0.556578	-1.000000	-1.000000	-1.000000	-1.000000	-1.000000	-1.000000	-1.000000	12.551724	0.000000	-1.000000	-1.000000	374797.000000	1772914686.225545
4373.685000	90829.620000	-11239.515000	-24940.575000	0.000000	0.000000	0.000000	0.000000	-14.393249	-24.911983	-4.052772	-10.113630	-0.000000	0.000000	-0.000000	-0.000000	0.091560	-0.854560	-0.579880	-0.110290	0.824278	0.556578	-1.000000	-1.000000	-1.000000	-1.000000	-1.000000	-1.000000	-1.000000	12.551724	0.000000	-1.000000	-1.000000	374798.000000	1772914686.229573
4387.815000	90845.910000	-11235.735000	-24942.105000	0.000000	0.000000	0.000000	0.000000	-18.411762	-27.995009	-10.771207	-17.494558	-0.000000	0.000000	-0.000000	-0.000000	0.091560	-0.854560	-0.579880	-0.110290	0.824278	0.556578	-1.000000	-1.000000	-1.000000	-1.000000	-1.000000	-1.000000	-1.000000	12.551724	0.000000	-1.000000	-1.000000	374799.000000	1772914686.229576
4398.120000	90867.870000	-11231.010000	-24928.920000	0.000000	0.000000	0.000000	0.000000	-10.922908	-16.197312	-10.498435	-16.191982	-0.000000	0.000000	-0.000000	-0.000000	0.091560	-0.854560	-0.579880	-0.110290	0.824278	0.556578	-1.000000	-1.000000	-1.000000	-1.000000	-1.000000	-1.000000	-1.000000	12.551724	0.000000	-1.000000	-1.000000	374800.000000	1772914686.233552
4400.685000	90884.295000	-11232.585000	-24927.480000	0.000000	0.000000	0.000000	0.000000	2.166156	3.790495	-5.030207	-7.248904	-0.000000	0.000000	-0.000000	-0.000000	0.091560	-0.854560	-0.579880	-0.110290	0.824278	0.556578	-1.000000	-1.000000	-1.000000	-1.000000	-1.000000	-1.000000	-1.000000	12.551724	0.000000	-1.000000	-1.000000	374801.000000	1772914686.233555
4395.285000	90884.745000	-11236.455000	-24931.395000	0.000000	0.000000	0.000000	0.000000	12.248422	21.054630	1.355674	4.482251	-0.000000	0.000000	-0.000000	-0.000000	0.091560	-0.854560	-0.579880	-0.110290	0.824278	0.556578	-1.000000	-1.000000	-1.000000	-1.000000	-1.000000	-1.000000	-1.000000	12.551724	0.000000	-1.000000	-1.000000	374802.000000	1772914686.237559
4394.520000	90872.010000	-11228.670000	-24925.050000	0.000000	0.000000	0.000000	0.000000	13.870025	26.441451	5.107737	12.804186	-0.000000	0.000000	-0.000000	-0.000000	0.091560	-0.854560	-0.579880	-0.110290	0.824278	0.556578	-1.000000	-1.000000	-1.000000	-1.000000	-1.000000	-1.000000	-1.000000	12.551724	0.000000	-1.000000	-1.000000	374803.000000	1772914686.237562
4394.250000	90849.780000	-11220.525000	-24916.320000	0.000000	0.000000	0.000000	0.000000	7.670078	17.391386	5.673510	14.650103	-0.000000	0.000000	-0.000000	-0.000000	3.067260	1.617560	-0.671440	-0.108520	0.821348	0.557860	-1.000000	-1.000000	-1.000000	-1.000000	-1.000000	-1.000000	-1.000000	12.551724	0.000000	-1.000000	-1.000000	374804.000000	1772914686.241600
4380.390000	90828.855000	-11229.660000	-24927.345000	0.000000	0.000000	0.000000	0.000000	-1.591528	-0.964005	4.314917	10.905791	-0.000000	0.000000	-0.000000	-0.000000	3.067260	1.617560	-0.671440	-0.108520	0.821348	0.557860	-1.000000	-1.000000	-1.000000	-1.000000	-1.000000	-1.000000	-1.000000	12.551724	0.000000	-1.000000	-1.000000	374805.000000	1772914686.241603
4378.275000	90817.020000	-11232.270000	-24928.965000	0.000000	0.000000	0.000000	0.000000	-9.161722	-18.864292	1.703444	3.839806	-0.000000	0.000000	-0.000000	-0.000000	3.067260	1.617560	-0.671440	-0.108520	0.821348	0.557860	-1.000000	-1.000000	-1.000000	-1.000000	-1.000000	-1.000000	-1.000000	12.551724	0.000000	-1.000000	-1.000000	374806.000000	1772914686.245480
4383.315000	90826.785000	-11233.080000	-24926.400000	0.000000	0.000000	0.000000	0.000000	-12.036016	-26.995773	-1.692323	-3.773281	-0.000000	0.000000	-0.000000	-0.000000	3.067260	1.617560	-0.671440	-0.108520	0.821348	0.557860	-1.000000	-1.000000	-1.000000	-1.000000	-1.000000	-1.000000	-1.000000	12.551724	0.000000	-1.000000	-1.000000	374807.000000	1772914686.245482
4397.085000	90849.195000	-11226.645000	-24916.950000	0.000000	0.000000	0.000000	0.000000	-8.995879	-20.934395	-4.328788	-8.612850	-0.000000	0.000000	-0.000000	-0.000000	3.067260	1.617560	-0.671440	-0.108520	0.821348	0.557860	-1.000000	-1.000000	-1.000000	-1.000000	-1.000000	-1.000000	-1.000000	12.551724	0.000000	-1.000000	-1.000000	374808.000000	1772914686.249640
4420.530000	90871.245000	-11205.585000	-24894.900000	0.000000	0.000000	0.000000	0.000000	-1.046968	-3.455900	-4.215360	-8.317276	-0.000000	0.000000	-0.000000	-0.000000	3.067260	1.617560	-0.671440	-0.108520	0.821348	0.557860	-1.000000	-1.000000	-1.000000	-1.000000	-1.000000	-1.000000	-1.000000	12.551724	0.000000	-1.000000	-1.000000	374809.000000	1772914686.249642
4439.565000	90878.355000	-11185.695000	-24875.955000	0.000000	0.000000	0.000000	0.000000	8.588767	16.382119	-0.479521	-3.033604	-0.000000	0.000000	-0.000000	-0.000000	3.067260	1.617560	-0.671440	-0.108520	0.821348	0.557860	-1.000000	-1.000000	-1.000000	-1.000000	-1.000000	-1.000000	-1.000000	12.551724	0.000000	-1.000000	-1.000000	374810.000000	1772914686.253579
4410.225000	90868.860000	-11211.030000	-24901.245000	0.000000	0.000000	0.000000	0.000000	14.709429	27.802853	4.575923	3.519877	-0.000000	0.000000	-0.000000	-0.000000	3.067260	1.617560	-0.671440	-0.108520	0.821348	0.557860	-1.000000	-1.000000	-1.000000	-1.000000	-1.000000	-1.000000	-1.000000	12.551724	0.000000	-1.000000	-1.000000	374811.000000	1772914686.253582
4378.545000	90847.305000	-11240.280000	-24933.330000	0.000000	0.000000	0.000000	0.000000	11.737696	24.419035	5.458501	5.053700	-0.000000	0.000000	-0.000000	-0.000000	3.067260	1.617560	-0.671440	-0.108520	0.821348	0.557860	-1.000000	-1.000000	-1.000000	-1.000000	-1.000000	-1.000000	-1.000000	12.551724	0.000000	-1.000000	-1.000000	374812.000000	1772914686.257444
4382.640000	90827.460000	-11234.790000	-24931.800000	0.000000	0.000000	0.000000	0.000000	-0.575899	8.062981	-0.621963	-1.233126	-0.000000	0.000000	-0.000000	-0.000000	3.067260	1.617560	-0.671440	-0.108520	0.821348	0.557860	-1.000000	-1.000000	-1.000000	-1.000000	-1.000000	-1.000000	-1.000000	12.551724	0.000000	-1.000000	-1.000000	374813.000000	1772914686.257447
4372.785000	90816.480000	-11244.330000	-24943.275000	0.000000	0.000000	0.000000	0.000000	-14.201107	-12.231677	-9.028545	-10.240534	-0.000000	0.000000	-0.000000	-0.000000	6.928040	0.656180	1.342880	-0.109436	0.819029	0.560301	-1.000000	-1.000000	-1.000000	-1.000000	-1.000000	-1.000000	-1.000000	12.551724	0.000000	-1.000000	-1.000000	374814.000000	1772914686.261485
4369.770000	90821.160000	-11239.110000	-24935.580000	0.000000	0.000000	0.000000	0.000000	-19.852463	-25.474724	-12.564498	-14.015676	-0.000000	0.000000	-0.000000	-0.000000	6.928040	0.656180	1.342880	-0.109436	0.819029	0.560301	-1.000000	-1.000000	-1.000000	-1.000000	-1.000000	-1.000000	-1.000000	12.551724	0.000000	-1.000000	-1.000000	374815.000000	1772914686.261488
4390.155000	90832.860000	-11228.490000	-24921.405000	0.000000	0.000000	0.000000	0.000000	-14.468526	-24.923850	-8.276973	-8.901802	-0.000000	0.000000	-0.000000	-0.000000	6.928040	0.656180	1.342880	-0.109436	0.819029	0.560301	-1.000000	-1.000000	-1.000000	-1.000000	-1.000000	-1.000000	-1.000000	12.551724	0.000000	-1.000000	-1.000000	374816.000000	1772914686.265650
4396.005000	90850.815000	-11234.790000	-24925.590000	0.000000	0.000000	0.000000	0.000000	-1.249290	-11.547083	1.297697	2.546301	-0.000000	0.000000	-0.000000	-0.000000	6.928040	0.656180	1.342880	-0.109436	0.819029	0.560301	-1.000000	-1.000000	-1.000000	-1.000000	-1.000000	-1.000000	-1.000000	12.551724	0.000000	-1.000000	-1.000000	374817.000000	1772914686.265653
4403.205000	90864.135000	-11231.505000	-24922.575000	0.000000	0.000000	0.000000	0.000000	12.903262	7.127189	10.361434	13.530204	-0.000000	0.000000	-0.000000	-0.000000	6.928040	0.656180	1.342880	-0.109436	0.819029	0.560301	-1.000000	-1.000000	-1.000000	-1.000000	-1.000000	-1.000000	-1.000000	12.551724	0.000000	-1.000000	-1.000000	374818.000000	1772914686.269458
4404.105000	90862.110000	-11223.765000	-24914.700000	0.000000	0.000000	0.000000	0.000000	20.799774	21.386837	14.213227	18.072974	-0.000000	0.000000	-0.000000	-0.000000	6.928040	0.656180	1.342880	-0.109436	0.819029	0.560301	-1.000000	-1.000000	-1.000000	-1.000000	-1.000000	-1.000000	-1.000000	12.551724	0.000000	-1.000000	-1.000000	374819.000000	1772914686.269461
4397.670000	90842.940000	-11221.425000	-24913.575000	0.000000	0.000000	0.000000	0.000000	18.956189	24.040193	12.248904	15.051399	-0.000000	0.000000	-0.000000	-0.000000	6.928040	0.656180	1.342880	-0.109436	0.819029	0.560301	-1.000000	-1.000000	-1.000000	-1.000000	-1.000000	-1.000000	-1.000000	12.551724	0.000000	-1.000000	-1.000000	374820.000000	1772914686.273492
4377.015000	90819.585000	-11238.255000	-24933.015000	0.000000	0.000000	0.000000	0.000000	8.699755	13.792502	6.306824	6.823315	-0.000000	0.000000	-0.000000	-0.000000	6.928040	0.656180	1.342880	-0.109436	0.819029	0.560301	-1.000000	-1.000000	-1.000000	-1.000000	-1.000000	-1.000000	-1.000000	12.551724	0.000000	-1.000000	-1.000000	374821.000000	1772914686.273495
4367.835000	90803.925000	-11242.890000	-24939.360000	0.000000	0.000000	0.000000	0.000000	-5.227111	-3.813583	-1.601328	-3.534095	-0.000000	0.000000	-0.000000	-0.000000	6.928040	0.656180	1.342880	-0.109436	0.819029	0.560301	-1.000000	-1.000000	-1.000000	-1.000000	-1.000000	-1.000000	-1.000000	12.551724	0.000000	-1.000000	-1.000000	374822.000000	1772914686.277467
4373.415000	90807.255000	-11239.020000	-24934.590000	0.000000	0.000000	0.000000	0.000000	-16.269629	-18.985066	-8.723499	-12.189364	-0.000000	0.000000	-0.000000	-0.000000	6.928040	0.656180	1.342880	-0.109436	0.819029	0.560301	-1.000000	-1.000000	-1.000000	-1.000000	-1.000000	-1.000000	-1.000000	12.551724	0.000000	-1.000000	-1.000000	374823.000000	1772914686.277471
4387.410000	90825.570000	-11232.990000	-24926.445000	0.000000	0.000000	0.000000	0.000000	-18.657738	-23.031087	-11.596201	-14.975689	-0.000000	0.000000	-0.000000	-0.000000	10.041080	0.839300	-0.488320	-0.113220	0.818968	0.559569	-1.000000	-1.000000	-1.000000	-1.000000	-1.000000	-1.000000	-1.000000	12.551724	0.000000	-1.000000	-1.000000	374824.000000	1772914686.281609
4400.505000	90848.475000	-11228.850000	-24920.055000	0.000000	0.000000	0.000000	0.000000	-11.096533	-13.527863	-8.723234	-10.443794	-0.000000	0.000000	-0.000000	-0.000000	10.041080	0.839300	-0.488320	-0.113220	0.818968	0.559569	-1.000000	-1.000000	-1.000000	-1.000000	-1.000000	-1.000000	-1.000000	12.551724	0.000000	-1.000000	-1.000000	374825.000000	1772914686.281612
4417.695000	90861.435000	-11216.610000	-24907.320000	0.000000	0.000000	0.000000	0.000000	2.030332	3.992158	-1.988232	-1.361254	-0.000000	0.000000	-0.000000	-0.000000	10.041080	0.839300	-0.488320	-0.113220	0.818968	0.559569	-1.000000	-1.000000	-1.000000	-1.000000	-1.000000	-1.000000	-1.000000	12.551724	0.000000	-1.000000	-1.000000	374826.000000	1772914686.287904
4415.850000	90860.580000	-11218.455000	-24911.730000	0.000000	0.000000	0.000000	0.000000	13.426767	19.220901	4.871266	7.235766	-0.000000	0.000000	-0.000000	-0.000000	10.041080	0.839300	-0.488320	-0.113220	0.818968	0.559569	-1.000000	-1.000000	-1.000000	-1.000000	-1.000000	-1.000000	-1.000000	12.551724	0.000000	-1.000000	-1.000000	374827.000000	1772914686.287907
4398.030000	90845.235000	-11230.245000	-24924.825000	0.000000	0.000000	0.000000	0.000000	16.727449	23.276157	8.128770	10.685402	-0.000000	0.000000	-0.000000	-0.000000	10.041080	0.839300	-0.488320	-0.113220	0.818968	0.559569	-1.000000	-1.000000	-1.000000	-1.000000	-1.000000	-1.000000	-1.000000	12.551724	0.000000	-1.000000	-1.000000	374828.000000	1772914686.289506
4387.410000	90822.645000	-11231.550000	-24924.825000	0.000000	0.000000	0.000000	0.000000	9.881965	13.856665	5.962668	7.291122	-0.000000	0.000000	-0.000000	-0.000000	10.041080	0.839300	-0.488320	-0.113220	0.818968	0.559569	-1.000000	-1.000000	-1.000000	-1.000000	-1.000000	-1.000000	-1.000000	12.551724	0.000000	-1.000000	-1.000000	374829.000000	1772914686.289508
4377.060000	90803.430000	-11236.545000	-24929.640000	0.000000	0.000000	0.000000	0.000000	-3.022671	-3.739566	0.124246	-0.135847	-0.000000	0.000000	-0.000000	-0.000000	10.041080	0.839300	-0.488320	-0.113220	0.818968	0.559569	-1.000000	-1.000000	-1.000000	-1.000000	-1.000000	-1.000000	-1.000000	12.551724	0.000000	-1.000000	-1.000000	374830.000000	1772914686.295906
4374.720000	90799.965000	-11240.055000	-24933.240000	0.000000	0.000000	0.000000	0.000000	-14.233634	-19.769619	-5.410735	-6.611270	-0.000000	0.000000	-0.000000	-0.000000	10.041080	0.839300	-0.488320	-0.113220	0.818968	0.559569	-1.000000	-1.000000	-1.000000	-1.000000	-1.000000	-1.000000	-1.000000	12.551724	0.000000	-1.000000	-1.000000	374831.000000	1772914686.295908
4384.170000	90813.195000	-11237.220000	-24928.065000	0.000000	0.000000	0.000000	0.000000	-17.437315	-25.300238	-7.538070	-8.735857	-0.000000	0.000000	-0.000000	-0.000000	10.041080	0.839300	-0.488320	-0.113220	0.818968	0.559569	-1.000000	-1.000000	-1.000000	-1.000000	-1.000000	-1.000000	-1.000000	12.551724	0.000000	-1.000000	-1.000000	374832.000000	1772914686.299061
4396.815000	90835.785000	-11231.865000	-24920.865000	0.000000	0.000000	0.000000	0.000000	-11.084616	-17.006643	-5.405259	-5.894450	-0.000000	0.000000	-0.000000	-0.000000	10.041080	0.839300	-0.488320	-0.113220	0.818968	0.559569	-1.000000	-1.000000	-1.000000	-1.000000	-1.000000	-1.000000	-1.000000	12.551724	0.000000	-1.000000	-1.000000	374833.000000	1772914686.299064
4400.820000	90854.595000	-11234.655000	-24922.530000	0.000000	0.000000	0.000000	0.000000	1.091560	0.870336	-0.440147	0.010058	-0.000000	0.000000	-0.000000	-0.000000	9.476460	0.824040	-1.373400	-0.111206	0.822874	0.557860	-1.000000	-1.000000	-1.000000	-1.000000	-1.000000	-1.000000	-1.000000	12.551724	0.000000	-1.000000	-1.000000	374834.000000	1772914686.301615
4407.885000	90861.885000	-11227.680000	-24914.205000	0.000000	0.000000	0.000000	0.000000	12.310943	18.721678	4.502578	5.584674	-0.000000	0.000000	-0.000000	-0.000000	9.476460	0.824040	-1.373400	-0.111206	0.822874	0.557860	-1.000000	-1.000000	-1.000000	-1.000000	-1.000000	-1.000000	-1.000000	12.551724	0.000000	-1.000000	-1.000000	374835.000000	1772914686.301618
4420.215000	90846.945000	-11209.905000	-24896.745000	0.000000	0.000000	0.000000	0.000000	17.196912	26.770363	7.399878	8.465493	-0.000000	0.000000	-0.000000	-0.000000	9.476460	0.824040	-1.373400	-0.111206	0.822874	0.557860	-1.000000	-1.000000	-1.000000	-1.000000	-1.000000	-1.000000	-1.000000	12.551724	0.000000	-1.000000	-1.000000	374836.000000	1772914686.305558
4405.635000	90822.960000	-11216.790000	-24909.255000	0.000000	0.000000	0.000000	0.000000	14.386405	20.336927	7.897862	8.211173	-0.000000	0.000000	-0.000000	-0.000000	9.476460	0.824040	-1.373400	-0.111206	0.822874	0.557860	-1.000000	-1.000000	-1.000000	-1.000000	-1.000000	-1.000000	-1.000000	12.551724	0.000000	-1.000000	-1.000000	374837.000000	1772914686.305561
4378.050000	90800.865000	-11237.895000	-24933.645000	0.000000	0.000000	0.000000	0.000000	5.152134	2.601707	5.389466	4.334735	0.000000	0.000000	-0.000000	-0.000000	9.476460	0.824040	-1.373400	-0.111206	0.822874	0.557860	-1.000000	-1.000000	-1.000000	-1.000000	-1.000000	-1.000000	-1.000000	12.551724	0.000000	-1.000000	-1.000000	374838.000000	1772914686.309522
4369.275000	90791.685000	-11244.780000	-24940.170000	0.000000	0.000000	0.000000	0.000000	-7.406387	-16.831828	-0.723785	-3.156939	0.000000	0.000000	-0.000000	-0.000000	9.476460	0.824040	-1.373400	-0.111206	0.822874	0.557860	-1.000000	-1.000000	-1.000000	-1.000000	-1.000000	-1.000000	-1.000000	12.551724	0.000000	-1.000000	-1.000000	374839.000000	1772914686.309524
4377.690000	90800.145000	-11240.820000	-24932.970000	0.000000	0.000000	0.000000	0.000000	-17.357425	-27.259028	-7.971327	-10.732938	0.000000	0.000000	-0.000000	-0.000000	9.476460	0.824040	-1.373400	-0.111206	0.822874	0.557860	-1.000000	-1.000000	-1.000000	-1.000000	-1.000000	-1.000000	-1.000000	12.551724	0.000000	-1.000000	-1.000000	374840.000000	1772914686.313606
4391.865000	90820.935000	-11235.105000	-24925.815000	0.000000	0.000000	0.000000	0.000000	-18.364897	-22.895909	-11.435403	-12.860133	0.000000	0.000000	-0.000000	-0.000000	9.476460	0.824040	-1.373400	-0.111206	0.822874	0.557860	-1.000000	-1.000000	-1.000000	-1.000000	-1.000000	-1.000000	-1.000000	12.551724	0.000000	-1.000000	-1.000000	374841.000000	1772914686.313609
4394.835000	90842.760000	-11238.120000	-24927.075000	0.000000	0.000000	0.000000	0.000000	-9.226227	-6.048865	-8.550382	-7.565387	0.000000	0.000000	-0.000000	-0.000000	9.476460	0.824040	-1.373400	-0.111206	0.822874	0.557860	-1.000000	-1.000000	-1.000000	-1.000000	-1.000000	-1.000000	-1.000000	12.551724	0.000000	-1.000000	-1.000000	374842.000000	1772914686.317488
4394.115000	90857.610000	-11238.030000	-24925.590000	0.000000	0.000000	0.000000	0.000000	4.311745	14.257654	-1.548080	1.542318	0.000000	0.000000	-0.000000	-0.000000	9.476460	0.824040	-1.373400	-0.111206	0.822874	0.557860	-1.000000	-1.000000	-1.000000	-1.000000	-1.000000	-1.000000	-1.000000	12.551724	0.000000	-1.000000	-1.000000	374843.000000	1772914686.317491
4424.805000	90857.070000	-11204.865000	-24892.155000	0.000000	0.000000	0.000000	0.000000	14.661675	27.320241	5.681006	9.463761	0.000000	0.000000	-0.000000	-0.000000	9.278080	0.427280	-0.686700	-0.109375	0.827451	0.554015	-1.000000	-1.000000	-1.000000	-1.000000	-1.000000	-1.000000	-1.000000	12.551724	0.000000	-1.000000	-1.000000	374844.000000	1772914686.321601
4451.355000	90838.620000	-11174.580000	-24863.760000	0.000000	0.000000	0.000000	0.000000	18.653995	26.340384	11.515104	14.302489	0.000000	0.000000	-0.000000	-0.000000	9.278080	0.427280	-0.686700	-0.109375	0.827451	0.554015	-1.000000	-1.000000	-1.000000	-1.000000	-1.000000	-1.000000	-1.000000	12.551724	0.000000	-1.000000	-1.000000	374845.000000	1772914686.321603
4432.320000	90808.200000	-11191.005000	-24880.995000	0.000000	0.000000	0.000000	0.000000	16.609327	11.557101	14.827207	15.448324	0.000000	0.000000	-0.000000	-0.000000	9.278080	0.427280	-0.686700	-0.109375	0.827451	0.554015	-1.000000	-1.000000	-1.000000	-1.000000	-1.000000	-1.000000	-1.000000	12.551724	0.000000	-1.000000	-1.000000	374846.000000	1772914686.328810
4376.745000	90788.715000	-11242.620000	-24932.430000	0.000000	0.000000	0.000000	0.000000	7.514079	-9.898699	11.457722	9.784173	0.000000	0.000000	-0.000000	-0.000000	9.278080	0.427280	-0.686700	-0.109375	0.827451	0.554015	-1.000000	-1.000000	-1.000000	-1.000000	-1.000000	-1.000000	-1.000000	12.551724	0.000000	-1.000000	-1.000000	374847.000000	1772914686.328815
4358.205000	90782.505000	-11258.820000	-24947.145000	0.000000	0.000000	0.000000	0.000000	-8.824885	-27.141120	-1.529499	-4.531806	0.000000	0.000000	-0.000000	-0.000000	9.278080	0.427280	-0.686700	-0.109375	0.827451	0.554015	-1.000000	-1.000000	-1.000000	-1.000000	-1.000000	-1.000000	-1.000000	12.551724	0.000000	-1.000000	-1.000000	374848.000000	1772914686.329501
4372.830000	90802.620000	-11253.240000	-24941.340000	0.000000	0.000000	0.000000	0.000000	-25.180353	-30.866543	-18.170613	-21.009997	0.000000	0.000000	-0.000000	-0.000000	9.278080	0.427280	-0.686700	-0.109375	0.827451	0.554015	-1.000000	-1.000000	-1.000000	-1.000000	-1.000000	-1.000000	-1.000000	12.551724	0.000000	-1.000000	-1.000000	374849.000000	1772914686.329505
4394.610000	90831.870000	-11241.675000	-24927.390000	0.000000	0.000000	0.000000	0.000000	-29.562010	-18.370106	-26.345877	-27.837852	0.000000	0.000000	-0.000000	-0.000000	9.278080	0.427280	-0.686700	-0.109375	0.827451	0.554015	-1.000000	-1.000000	-1.000000	-1.000000	-1.000000	-1.000000	-1.000000	12.551724	0.000000	-1.000000	-1.000000	374850.000000	1772914686.335874
4403.610000	90852.255000	-11237.670000	-24922.260000	0.000000	0.000000	0.000000	0.000000	-16.927624	4.435660	-19.396411	-19.153891	0.000000	0.000000	-0.000000	-0.000000	9.278080	0.427280	-0.686700	-0.109375	0.827451	0.554015	-1.000000	-1.000000	-1.000000	-1.000000	-1.000000	-1.000000	-1.000000	12.551724	0.000000	-1.000000	-1.000000	374851.000000	1772914686.335877
4407.930000	90854.910000	-11231.100000	-24916.905000	0.000000	0.000000	0.000000	0.000000	5.170261	25.489836	-1.852133	-0.325596	0.000000	0.000000	-0.000000	-0.000000	9.278080	0.427280	-0.686700	-0.109375	0.827451	0.554015	-1.000000	-1.000000	-1.000000	-1.000000	-1.000000	-1.000000	-1.000000	12.551724	0.000000	-1.000000	-1.000000	374852.000000	1772914686.337614
4401.090000	90842.355000	-11227.680000	-24917.175000	0.000000	0.000000	0.000000	0.000000	23.137174	33.240300	15.613476	17.344177	0.000000	0.000000	-0.000000	-0.000000	9.278080	0.427280	-0.686700	-0.109375	0.827451	0.554015	-1.000000	-1.000000	-1.000000	-1.000000	-1.000000	-1.000000	-1.000000	12.551724	0.000000	-1.000000	-1.000000	374853.000000	1772914686.337617
4390.380000	90820.080000	-11231.055000	-24923.070000	0.000000	0.000000	0.000000	0.000000	27.485787	23.528401	24.210075	24.952186	0.000000	0.000000	-0.000000	-0.000000	5.371520	0.732480	0.061040	-0.110962	0.830076	0.551329	-1.000000	-1.000000	-1.000000	-1.000000	-1.000000	-1.000000	-1.000000	12.551724	0.000000	-1.000000	-1.000000	374854.000000	1772914686.341321
4382.910000	90802.485000	-11233.575000	-24926.670000	0.000000	0.000000	0.000000	0.000000	17.899222	1.873886	21.242655	20.442392	0.000000	0.000000	-0.000000	-0.000000	5.371520	0.732480	0.061040	-0.110962	0.830076	0.551329	-1.000000	-1.000000	-1.000000	-1.000000	-1.000000	-1.000000	-1.000000	12.551724	0.000000	-1.000000	-1.000000	374855.000000	1772914686.341324
4379.535000	90797.445000	-11236.365000	-24928.515000	0.000000	0.000000	0.000000	0.000000	1.683146	-19.952802	10.020676	8.198430	0.000000	0.000000	-0.000000	-0.000000	5.371520	0.732480	0.061040	-0.110962	0.830076	0.551329	-1.000000	-1.000000	-1.000000	-1.000000	-1.000000	-1.000000	-1.000000	12.551724	0.000000	-1.000000	-1.000000	374856.000000	1772914686.345603
4379.310000	90807.930000	-11243.745000	-24933.330000	0.000000	0.000000	0.000000	0.000000	-11.829932	-30.582673	-3.121121	-4.672992	0.000000	0.000000	-0.000000	-0.000000	5.371520	0.732480	0.061040	-0.110962	0.830076	0.551329	-1.000000	-1.000000	-1.000000	-1.000000	-1.000000	-1.000000	-1.000000	12.551724	0.000000	-1.000000	-1.000000	374857.000000	1772914686.345605
4394.430000	90828.675000	-11238.165000	-24925.680000	0.000000	0.000000	0.000000	0.000000	-16.548160	-25.062389	-12.455593	-12.509841	0.000000	0.000000	-0.000000	-0.000000	5.371520	0.732480	0.061040	-0.110962	0.830076	0.551329	-1.000000	-1.000000	-1.000000	-1.000000	-1.000000	-1.000000	-1.000000	12.551724	0.000000	-1.000000	-1.000000	374858.000000	1772914686.349583
4409.460000	90847.575000	-11227.770000	-24912.720000	0.000000	0.000000	0.000000	0.000000	-11.642640	-7.095573	-14.761216	-12.938157	0.000000	0.000000	-0.000000	-0.000000	5.371520	0.732480	0.061040	-0.110962	0.830076	0.551329	-1.000000	-1.000000	-1.000000	-1.000000	-1.000000	-1.000000	-1.000000	12.551724	0.000000	-1.000000	-1.000000	374859.000000	1772914686.349585
4410.945000	90852.885000	-11227.455000	-24912.270000	0.000000	0.000000	0.000000	0.000000	-1.221897	13.281384	-10.197763	-7.194226	0.000000	0.000000	-0.000000	-0.000000	5.371520	0.732480	0.061040	-0.110962	0.830076	0.551329	-1.000000	-1.000000	-1.000000	-1.000000	-1.000000	-1.000000	-1.000000	12.551724	0.000000	-1.000000	-1.000000	374860.000000	1772914686.353517
4407.750000	90842.985000	-11225.565000	-24912.090000	0.000000	0.000000	0.000000	0.000000	7.834109	25.174915	-2.387046	0.384482	0.000000	0.000000	-0.000000	-0.000000	5.371520	0.732480	0.061040	-0.110962	0.830076	0.551329	-1.000000	-1.000000	-1.000000	-1.000000	-1.000000	-1.000000	-1.000000	12.551724	0.000000	-1.000000	-1.000000	374861.000000	1772914686.353519
4395.645000	90820.530000	-11227.860000	-24917.805000	0.000000	0.000000	0.000000	0.000000	10.071385	22.642214	3.950072	5.043783	0.000000	0.000000	-0.000000	-0.000000	5.371520	0.732480	0.061040	-0.110962	0.830076	0.551329	-1.000000	-1.000000	-1.000000	-1.000000	-1.000000	-1.000000	-1.000000	12.551724	0.000000	-1.000000	-1.000000	374862.000000	1772914686.357560
4381.200000	90796.005000	-11235.465000	-24928.380000	0.000000	0.000000	0.000000	0.000000	4.728188	7.654294	5.973925	4.635308	0.000000	0.000000	-0.000000	-0.000000	5.371520	0.732480	0.061040	-0.110962	0.830076	0.551329	-1.000000	-1.000000	-1.000000	-1.000000	-1.000000	-1.000000	-1.000000	12.551724	0.000000	-1.000000	-1.000000	374863.000000	1772914686.357563
4372.110000	90782.235000	-11242.890000	-24934.725000	0.000000	0.000000	0.000000	0.000000	-4.385243	-11.255816	3.658650	0.321198	0.000000	0.000000	-0.000000	-0.000000	2.243220	-0.808780	-0.869820	-0.110779	0.835203	0.552855	-1.000000	-1.000000	-1.000000	-1.000000	-1.000000	-1.000000	-1.000000	12.551724	0.000000	-1.000000	-1.000000	374864.000000	1772914686.361610
4387.320000	90788.445000	-11231.190000	-24921.585000	0.000000	0.000000	0.000000	0.000000	-11.175001	-23.583510	-0.513678	-4.280806	0.000000	0.000000	-0.000000	-0.000000	2.243220	-0.808780	-0.869820	-0.110779	0.835203	0.552855	-1.000000	-1.000000	-1.000000	-1.000000	-1.000000	-1.000000	-1.000000	12.551724	0.000000	-1.000000	-1.000000	374865.000000	1772914686.361612
4416.435000	90803.970000	-11209.455000	-24899.895000	0.000000	0.000000	0.000000	0.000000	-10.351759	-22.444596	-2.619087	-4.960266	0.000000	0.000000	-0.000000	-0.000000	2.243220	-0.808780	-0.869820	-0.110779	0.835203	0.552855	-1.000000	-1.000000	-1.000000	-1.000000	-1.000000	-1.000000	-1.000000	12.551724	0.000000	-1.000000	-1.000000	374866.000000	1772914686.365646
4410.540000	90821.475000	-11221.380000	-24909.930000	0.000000	0.000000	0.000000	0.000000	-1.541641	-8.511684	-0.662449	-0.567035	0.000000	0.000000	-0.000000	-0.000000	2.243220	-0.808780	-0.869820	-0.110779	0.835203	0.552855	-1.000000	-1.000000	-1.000000	-1.000000	-1.000000	-1.000000	-1.000000	12.551724	0.000000	-1.000000	-1.000000	374867.000000	1772914686.365649
4394.610000	90830.745000	-11243.070000	-24928.155000	0.000000	0.000000	0.000000	0.000000	8.680394	10.331157	2.382955	4.689961	0.000000	0.000000	-0.000000	-0.000000	2.243220	-0.808780	-0.869820	-0.110779	0.835203	0.552855	-1.000000	-1.000000	-1.000000	-1.000000	-1.000000	-1.000000	-1.000000	12.551724	0.000000	-1.000000	-1.000000	374868.000000	1772914686.369591
4413.195000	90827.910000	-11225.340000	-24909.885000	0.000000	0.000000	0.000000	0.000000	12.567980	23.692684	2.301622	5.765522	0.000000	0.000000	-0.000000	-0.000000	2.243220	-0.808780	-0.869820	-0.110779	0.835203	0.552855	-1.000000	-1.000000	-1.000000	-1.000000	-1.000000	-1.000000	-1.000000	12.551724	0.000000	-1.000000	-1.000000	374869.000000	1772914686.369593
4400.370000	90808.155000	-11228.670000	-24916.545000	0.000000	0.000000	0.000000	0.000000	8.787763	24.465820	-0.398783	2.780671	0.000000	0.000000	-0.000000	-0.000000	2.243220	-0.808780	-0.869820	-0.110779	0.835203	0.552855	-1.000000	-1.000000	-1.000000	-1.000000	-1.000000	-1.000000	-1.000000	12.551724	0.000000	-1.000000	-1.000000	374870.000000	1772914686.373540
4388.895000	90781.965000	-11230.065000	-24921.630000	0.000000	0.000000	0.000000	0.000000	1.043415	12.280654	-2.410934	-0.974598	0.000000	0.000000	-0.000000	-0.000000	2.243220	-0.808780	-0.869820	-0.110779	0.835203	0.552855	-1.000000	-1.000000	-1.000000	-1.000000	-1.000000	-1.000000	-1.000000	12.551724	0.000000	-1.000000	-1.000000	374871.000000	1772914686.373542
4389.795000	90763.335000	-11225.340000	-24917.490000	0.000000	0.000000	0.000000	0.000000	-6.618065	-6.504128	-2.363641	-3.463571	0.000000	0.000000	-0.000000	-0.000000	2.243220	-0.808780	-0.869820	-0.110779	0.835203	0.552855	-1.000000	-1.000000	-1.000000	-1.000000	-1.000000	-1.000000	-1.000000	12.551724	0.000000	-1.000000	-1.000000	374872.000000	1772914686.377516
4393.260000	90765.900000	-11225.835000	-24916.050000	0.000000	0.000000	0.000000	0.000000	-10.662942	-21.840424	-0.828435	-3.906781	0.000000	0.000000	-0.000000	-0.000000	2.243220	-0.808780	-0.869820	-0.110779	0.835203	0.552855	-1.000000	-1.000000	-1.000000	-1.000000	-1.000000	-1.000000	-1.000000	12.551724	0.000000	-1.000000	-1.000000	374873.000000	1772914686.377519
4410.855000	90784.035000	-11216.430000	-24904.935000	0.000000	0.000000	0.000000	0.000000	-8.855308	-25.104507	1.176723	-2.135526	0.000000	0.000000	-0.000000	-0.000000	2.456860	0.152600	-2.472120	-0.106811	0.837522	0.554869	-1.000000	-1.000000	-1.000000	-1.000000	-1.000000	-1.000000	-1.000000	12.551724	0.000000	-1.000000	-1.000000	374874.000000	1772914686.384725
4430.430000	90805.905000	-11205.180000	-24891.795000	0.000000	0.000000	0.000000	0.000000	-1.711983	-14.168015	2.961829	1.233205	0.000000	0.000000	-0.000000	-0.000000	2.456860	0.152600	-2.472120	-0.106811	0.837522	0.554869	-1.000000	-1.000000	-1.000000	-1.000000	-1.000000	-1.000000	-1.000000	12.551724	0.000000	-1.000000	-1.000000	374875.000000	1772914686.384728
4420.710000	90814.995000	-11217.780000	-24903.090000	0.000000	0.000000	0.000000	0.000000	6.975657	4.807100	3.882758	4.508548	0.000000	0.000000	-0.000000	-0.000000	2.456860	0.152600	-2.472120	-0.106811	0.837522	0.554869	-1.000000	-1.000000	-1.000000	-1.000000	-1.000000	-1.000000	-1.000000	12.551724	0.000000	-1.000000	-1.000000	374876.000000	1772914686.387560
4407.570000	90814.275000	-11230.965000	-24920.865000	0.000000	0.000000	0.000000	0.000000	11.305045	20.835437	2.507316	4.825400	0.000000	0.000000	-0.000000	-0.000000	2.456860	0.152600	-2.472120	-0.106811	0.837522	0.554869	-1.000000	-1.000000	-1.000000	-1.000000	-1.000000	-1.000000	-1.000000	12.551724	0.000000	-1.000000	-1.000000	374877.000000	1772914686.387563
4400.910000	90800.055000	-11230.920000	-24921.855000	0.000000	0.000000	0.000000	0.000000	7.728363	24.919277	-1.663343	0.699382	0.000000	0.000000	-0.000000	-0.000000	2.456860	0.152600	-2.472120	-0.106811	0.837522	0.554869	-1.000000	-1.000000	-1.000000	-1.000000	-1.000000	-1.000000	-1.000000	12.551724	0.000000	-1.000000	-1.000000	374878.000000	1772914686.390918
4377.960000	90774.360000	-11243.745000	-24934.500000	0.000000	0.000000	0.000000	0.000000	-1.583794	15.136732	-6.351529	-5.409409	0.000000	0.000000	-0.000000	-0.000000	2.456860	0.152600	-2.472120	-0.106811	0.837522	0.554869	-1.000000	-1.000000	-1.000000	-1.000000	-1.000000	-1.000000	-1.000000	12.551724	0.000000	-1.000000	-1.000000	374879.000000	1772914686.390921
4369.545000	90753.660000	-11246.175000	-24937.875000	0.000000	0.000000	0.000000	0.000000	-11.007392	-2.995633	-8.530156	-9.284973	0.000000	0.000000	-0.000000	-0.000000	2.456860	0.152600	-2.472120	-0.106811	0.837522	0.554869	-1.000000	-1.000000	-1.000000	-1.000000	-1.000000	-1.000000	-1.000000	12.551724	0.000000	-1.000000	-1.000000	374880.000000	1772914686.395955
4366.080000	90750.555000	-11251.305000	-24943.140000	0.000000	0.000000	0.000000	0.000000	-15.291308	-19.677597	-6.934312	-8.579785	0.000000	0.000000	-0.000000	-0.000000	2.456860	0.152600	-2.472120	-0.106811	0.837522	0.554869	-1.000000	-1.000000	-1.000000	-1.000000	-1.000000	-1.000000	-1.000000	12.551724	0.000000	-1.000000	-1.000000	374881.000000	1772914686.395958
4375.800000	90762.660000	-11248.605000	-24939.180000	0.000000	0.000000	0.000000	0.000000	-11.765860	-25.739136	-2.250643	-3.677143	0.000000	0.000000	-0.000000	-0.000000	2.456860	0.152600	-2.472120	-0.106811	0.837522	0.554869	-1.000000	-1.000000	-1.000000	-1.000000	-1.000000	-1.000000	-1.000000	12.551724	0.000000	-1.000000	-1.000000	374882.000000	1772914686.399038
4396.635000	90787.005000	-11237.580000	-24926.355000	0.000000	0.000000	0.000000	0.000000	-1.399864	-17.601140	3.795200	3.398940	0.000000	0.000000	-0.000000	-0.000000	2.456860	0.152600	-2.472120	-0.106811	0.837522	0.554869	-1.000000	-1.000000	-1.000000	-1.000000	-1.000000	-1.000000	-1.000000	12.551724	0.000000	-1.000000	-1.000000	374883.000000	1772914686.399042
4409.730000	90807.615000	-11229.840000	-24916.230000	0.000000	0.000000	0.000000	0.000000	11.514589	0.564697	9.311790	10.196920	0.000000	0.000000	-0.000000	-0.000000	4.684820	1.739640	-1.266580	-0.103882	0.833982	0.556212	-1.000000	-1.000000	-1.000000	-1.000000	-1.000000	-1.000000	-1.000000	12.551724	0.000000	-1.000000	-1.000000	374884.000000	1772914686.404577
4411.350000	90814.815000	-11226.420000	-24912.585000	0.000000	0.000000	0.000000	0.000000	20.793151	18.977241	12.358949	14.168771	0.000000	0.000000	-0.000000	-0.000000	4.684820	1.739640	-1.266580	-0.103882	0.833982	0.556212	-1.000000	-1.000000	-1.000000	-1.000000	-1.000000	-1.000000	-1.000000	12.551724	0.000000	-1.000000	-1.000000	374885.000000	1772914686.404579
4400.460000	90799.020000	-11230.920000	-24920.235000	0.000000	0.000000	0.000000	0.000000	21.097349	27.419549	11.220352	13.066715	0.000000	0.000000	-0.000000	-0.000000	4.684820	1.739640	-1.266580	-0.103882	0.833982	0.556212	-1.000000	-1.000000	-1.000000	-1.000000	-1.000000	-1.000000	-1.000000	12.551724	0.000000	-1.000000	-1.000000	374886.000000	1772914686.411476
4382.910000	90773.820000	-11240.190000	-24934.365000	0.000000	0.000000	0.000000	0.000000	11.233319	20.803840	5.508107	6.238690	0.000000	0.000000	-0.000000	-0.000000	4.684820	1.739640	-1.266580	-0.103882	0.833982	0.556212	-1.000000	-1.000000	-1.000000	-1.000000	-1.000000	-1.000000	-1.000000	12.551724	0.000000	-1.000000	-1.000000	374887.000000	1772914686.411479
4383.990000	90749.475000	-11233.350000	-24930.540000	0.000000	0.000000	0.000000	0.000000	-4.305690	2.307822	-2.729734	-3.924404	0.000000	0.000000	-0.000000	-0.000000	4.684820	1.739640	-1.266580	-0.103882	0.833982	0.556212	-1.000000	-1.000000	-1.000000	-1.000000	-1.000000	-1.000000	-1.000000	12.551724	0.000000	-1.000000	-1.000000	374888.000000	1772914686.411483
4382.595000	90737.685000	-11235.870000	-24928.290000	0.000000	0.000000	0.000000	0.000000	-17.343751	-18.087951	-9.484271	-12.282517	0.000000	0.000000	-0.000000	-0.000000	4.684820	1.739640	-1.266580	-0.103882	0.833982	0.556212	-1.000000	-1.000000	-1.000000	-1.000000	-1.000000	-1.000000	-1.000000	12.551724	0.000000	-1.000000	-1.000000	374889.000000	1772914686.411486
4393.530000	90746.235000	-11228.985000	-24920.190000	0.000000	0.000000	0.000000	0.000000	-21.192985	-29.154309	-11.534327	-14.313759	0.000000	0.000000	-0.000000	-0.000000	4.684820	1.739640	-1.266580	-0.103882	0.833982	0.556212	-1.000000	-1.000000	-1.000000	-1.000000	-1.000000	-1.000000	-1.000000	12.551724	0.000000	-1.000000	-1.000000	374890.000000	1772914686.414559
4395.285000	90766.170000	-11231.280000	-24921.225000	0.000000	0.000000	0.000000	0.000000	-14.873447	-24.667029	-8.663060	-9.604464	0.000000	0.000000	-0.000000	-0.000000	4.684820	1.739640	-1.266580	-0.103882	0.833982	0.556212	-1.000000	-1.000000	-1.000000	-1.000000	-1.000000	-1.000000	-1.000000	12.551724	0.000000	-1.000000	-1.000000	374891.000000	1772914686.414562
4403.160000	90787.770000	-11230.335000	-24919.290000	0.000000	0.000000	0.000000	0.000000	-2.972671	-6.886508	-3.266435	-1.763954	0.000000	0.000000	-0.000000	-0.000000	4.684820	1.739640	-1.266580	-0.103882	0.833982	0.556212	-1.000000	-1.000000	-1.000000	-1.000000	-1.000000	-1.000000	-1.000000	12.551724	0.000000	-1.000000	-1.000000	374892.000000	1772914686.417631
4418.505000	90810.315000	-11220.705000	-24910.200000	0.000000	0.000000	0.000000	0.000000	8.195385	14.865957	1.798062	4.840068	0.000000	0.000000	-0.000000	-0.000000	4.684820	1.739640	-1.266580	-0.103882	0.833982	0.556212	-1.000000	-1.000000	-1.000000	-1.000000	-1.000000	-1.000000	-1.000000	12.551724	0.000000	-1.000000	-1.000000	374893.000000	1772914686.417634
4428.180000	90812.250000	-11212.740000	-24900.390000	0.000000	0.000000	0.000000	0.000000	14.477139	29.552842	5.139177	8.105226	0.000000	0.000000	-0.000000	-0.000000	5.600420	1.846460	-1.617560	-0.106811	0.828977	0.555541	-1.000000	-1.000000	-1.000000	-1.000000	-1.000000	-1.000000	-1.000000	12.551724	0.000000	-1.000000	-1.000000	374894.000000	1772914686.421606
4401.720000	90793.620000	-11231.145000	-24921.810000	0.000000	0.000000	0.000000	0.000000	14.069229	29.751715	6.159726	7.721207	0.000000	0.000000	-0.000000	-0.000000	5.600420	1.846460	-1.617560	-0.106811	0.828977	0.555541	-1.000000	-1.000000	-1.000000	-1.000000	-1.000000	-1.000000	-1.000000	12.551724	0.000000	-1.000000	-1.000000	374895.000000	1772914686.421608
4376.835000	90764.730000	-11246.400000	-24941.205000	0.000000	0.000000	0.000000	0.000000	6.372602	14.834042	3.782196	3.330678	0.000000	0.000000	-0.000000	-0.000000	5.600420	1.846460	-1.617560	-0.106811	0.828977	0.555541	-1.000000	-1.000000	-1.000000	-1.000000	-1.000000	-1.000000	-1.000000	12.551724	0.000000	-1.000000	-1.000000	374896.000000	1772914686.425623
4383.180000	90749.610000	-11232.585000	-24928.515000	0.000000	0.000000	0.000000	0.000000	-5.800322	-8.194818	-1.383807	-3.727105	0.000000	0.000000	-0.000000	-0.000000	5.600420	1.846460	-1.617560	-0.106811	0.828977	0.555541	-1.000000	-1.000000	-1.000000	-1.000000	-1.000000	-1.000000	-1.000000	12.551724	0.000000	-1.000000	-1.000000	374897.000000	1772914686.425626
4393.935000	90751.905000	-11224.665000	-24918.615000	0.000000	0.000000	0.000000	0.000000	-14.972600	-27.411342	-5.296552	-8.586069	0.000000	0.000000	-0.000000	-0.000000	5.600420	1.846460	-1.617560	-0.106811	0.828977	0.555541	-1.000000	-1.000000	-1.000000	-1.000000	-1.000000	-1.000000	-1.000000	12.551724	0.000000	-1.000000	-1.000000	374898.000000	1772914686.429648
4390.200000	90768.510000	-11239.020000	-24930.720000	0.000000	0.000000	0.000000	0.000000	-14.811611	-32.398467	-4.736119	-7.379181	0.000000	0.000000	-0.000000	-0.000000	5.600420	1.846460	-1.617560	-0.106811	0.828977	0.555541	-1.000000	-1.000000	-1.000000	-1.000000	-1.000000	-1.000000	-1.000000	12.551724	0.000000	-1.000000	-1.000000	374899.000000	1772914686.429651
4401.045000	90790.515000	-11238.165000	-24928.290000	0.000000	0.000000	0.000000	0.000000	-6.130851	-20.596484	-1.253658	-1.851125	0.000000	0.000000	-0.000000	-0.000000	5.600420	1.846460	-1.617560	-0.106811	0.828977	0.555541	-1.000000	-1.000000	-1.000000	-1.000000	-1.000000	-1.000000	-1.000000	12.551724	0.000000	-1.000000	-1.000000	374900.000000	1772914686.433667
4430.835000	90814.410000	-11210.355000	-24900.705000	0.000000	0.000000	0.000000	0.000000	5.525383	1.346803	2.315373	4.043584	0.000000	0.000000	-0.000000	-0.000000	5.600420	1.846460	-1.617560	-0.106811	0.828977	0.555541	-1.000000	-1.000000	-1.000000	-1.000000	-1.000000	-1.000000	-1.000000	12.551724	0.000000	-1.000000	-1.000000	374901.000000	1772914686.433670
4456.530000	90819.900000	-11180.340000	-24873.120000	0.000000	0.000000	0.000000	0.000000	15.324949	21.781276	5.961332	8.958524	0.000000	0.000000	-0.000000	-0.000000	5.600420	1.846460	-1.617560	-0.106811	0.828977	0.555541	-1.000000	-1.000000	-1.000000	-1.000000	-1.000000	-1.000000	-1.000000	12.551724	0.000000	-1.000000	-1.000000	374902.000000	1772914686.437645
4423.500000	90802.260000	-11205.405000	-24900.345000	0.000000	0.000000	0.000000	0.000000	19.271637	30.136862	9.400383	11.928631	0.000000	0.000000	-0.000000	-0.000000	5.600420	1.846460	-1.617560	-0.106811	0.828977	0.555541	-1.000000	-1.000000	-1.000000	-1.000000	-1.000000	-1.000000	-1.000000	12.551724	0.000000	-1.000000	-1.000000	374903.000000	1772914686.437648
4360.185000	90773.820000	-11259.990000	-24954.120000	0.000000	0.000000	0.000000	0.000000	12.555987	21.997717	7.938357	8.702274	0.000000	0.000000	-0.000000	-0.000000	4.318580	0.763000	-2.105880	-0.110351	0.825865	0.552550	-1.000000	-1.000000	-1.000000	-1.000000	-1.000000	-1.000000	-1.000000	12.551724	0.000000	-1.000000	-1.000000	374904.000000	1772914686.441570
4358.025000	90753.795000	-11257.065000	-24953.400000	0.000000	0.000000	0.000000	0.000000	-5.165735	1.744403	-2.083859	-3.177681	0.000000	0.000000	-0.000000	-0.000000	4.318580	0.763000	-2.105880	-0.110351	0.825865	0.552550	-1.000000	-1.000000	-1.000000	-1.000000	-1.000000	-1.000000	-1.000000	12.551724	0.000000	-1.000000	-1.000000	374905.000000	1772914686.441573
4374.585000	90745.830000	-11246.670000	-24942.645000	0.000000	0.000000	0.000000	0.000000	-23.411557	-19.329630	-14.774389	-16.827709	0.000000	0.000000	-0.000000	-0.000000	4.318580	0.763000	-2.105880	-0.110351	0.825865	0.552550	-1.000000	-1.000000	-1.000000	-1.000000	-1.000000	-1.000000	-1.000000	12.551724	0.000000	-1.000000	-1.000000	374906.000000	1772914686.445612
4387.320000	90758.070000	-11242.170000	-24936.165000	0.000000	0.000000	0.000000	0.000000	-27.966337	-29.441255	-19.192239	-21.011687	0.000000	0.000000	-0.000000	-0.000000	4.318580	0.763000	-2.105880	-0.110351	0.825865	0.552550	-1.000000	-1.000000	-1.000000	-1.000000	-1.000000	-1.000000	-1.000000	12.551724	0.000000	-1.000000	-1.000000	374907.000000	1772914686.445615
4400.730000	90780.930000	-11235.465000	-24926.040000	0.000000	0.000000	0.000000	0.000000	-14.886147	-23.094773	-11.364463	-11.969993	0.000000	0.000000	-0.000000	-0.000000	4.318580	0.763000	-2.105880	-0.110351	0.825865	0.552550	-1.000000	-1.000000	-1.000000	-1.000000	-1.000000	-1.000000	-1.000000	12.551724	0.000000	-1.000000	-1.000000	374908.000000	1772914686.449614
4427.505000	90801.135000	-11213.415000	-24901.965000	0.000000	0.000000	0.000000	0.000000	7.163878	-3.982563	3.387399	4.405500	0.000000	0.000000	-0.000000	-0.000000	4.318580	0.763000	-2.105880	-0.110351	0.825865	0.552550	-1.000000	-1.000000	-1.000000	-1.000000	-1.000000	-1.000000	-1.000000	12.551724	0.000000	-1.000000	-1.000000	374909.000000	1772914686.449617
4452.840000	90809.145000	-11187.315000	-24875.685000	0.000000	0.000000	0.000000	0.000000	25.860400	17.245496	17.090415	19.309197	0.000000	0.000000	-0.000000	-0.000000	4.318580	0.763000	-2.105880	-0.110351	0.825865	0.552550	-1.000000	-1.000000	-1.000000	-1.000000	-1.000000	-1.000000	-1.000000	12.551724	0.000000	-1.000000	-1.000000	374910.000000	1772914686.453643
4431.285000	90796.320000	-11201.805000	-24891.705000	0.000000	0.000000	0.000000	0.000000	32.306202	28.945381	23.582535	25.842352	0.000000	0.000000	-0.000000	-0.000000	4.318580	0.763000	-2.105880	-0.110351	0.825865	0.552550	-1.000000	-1.000000	-1.000000	-1.000000	-1.000000	-1.000000	-1.000000	12.551724	0.000000	-1.000000	-1.000000	374911.000000	1772914686.453646
4384.215000	90770.220000	-11239.605000	-24933.330000	0.000000	0.000000	0.000000	0.000000	22.473070	24.773733	18.737324	19.691502	0.000000	0.000000	-0.000000	-0.000000	4.318580	0.763000	-2.105880	-0.110351	0.825865	0.552550	-1.000000	-1.000000	-1.000000	-1.000000	-1.000000	-1.000000	-1.000000	12.551724	0.000000	-1.000000	-1.000000	374912.000000	1772914686.457570
4365.450000	90748.215000	-11250.765000	-24949.530000	0.000000	0.000000	0.000000	0.000000	-0.685613	7.115248	2.843818	1.642868	0.000000	0.000000	-0.000000	-0.000000	4.318580	0.763000	-2.105880	-0.110351	0.825865	0.552550	-1.000000	-1.000000	-1.000000	-1.000000	-1.000000	-1.000000	-1.000000	12.551724	0.000000	-1.000000	-1.000000	374913.000000	1772914686.457573
4372.065000	90740.070000	-11243.655000	-24944.220000	0.000000	0.000000	0.000000	0.000000	-25.145348	-14.072500	-15.931919	-19.146768	0.000000	0.000000	-0.000000	-0.000000	5.279960	1.113980	-1.510740	-0.112549	0.825315	0.552977	-1.000000	-1.000000	-1.000000	-1.000000	-1.000000	-1.000000	-1.000000	12.551724	0.000000	-1.000000	-1.000000	374914.000000	1772914686.461711
4359.150000	90745.110000	-11261.970000	-24960.600000	0.000000	0.000000	0.000000	0.000000	-36.472287	-26.942482	-26.274293	-30.211308	0.000000	0.000000	-0.000000	-0.000000	5.279960	1.113980	-1.510740	-0.112549	0.825315	0.552977	-1.000000	-1.000000	-1.000000	-1.000000	-1.000000	-1.000000	-1.000000	12.551724	0.000000	-1.000000	-1.000000	374915.000000	1772914686.461715
4370.625000	90758.925000	-11259.450000	-24953.040000	0.000000	0.000000	0.000000	0.000000	-29.093509	-24.774524	-23.322158	-25.949184	0.000000	0.000000	-0.000000	-0.000000	5.279960	1.113980	-1.510740	-0.112549	0.825315	0.552977	-1.000000	-1.000000	-1.000000	-1.000000	-1.000000	-1.000000	-1.000000	12.551724	0.000000	-1.000000	-1.000000	374916.000000	1772914686.465597
4398.255000	90780.075000	-11240.640000	-24929.325000	0.000000	0.000000	0.000000	0.000000	-8.341686	-9.452232	-10.255624	-9.837165	0.000000	0.000000	-0.000000	-0.000000	5.279960	1.113980	-1.510740	-0.112549	0.825315	0.552977	-1.000000	-1.000000	-1.000000	-1.000000	-1.000000	-1.000000	-1.000000	12.551724	0.000000	-1.000000	-1.000000	374917.000000	1772914686.465601
4430.835000	90795.240000	-11213.505000	-24900.615000	0.000000	0.000000	0.000000	0.000000	15.814461	10.476994	6.825867	10.579031	0.000000	0.000000	-0.000000	-0.000000	5.279960	1.113980	-1.510740	-0.112549	0.825315	0.552977	-1.000000	-1.000000	-1.000000	-1.000000	-1.000000	-1.000000	-1.000000	12.551724	0.000000	-1.000000	-1.000000	374918.000000	1772914686.469643
4424.895000	90790.020000	-11215.035000	-24906.195000	0.000000	0.000000	0.000000	0.000000	33.160581	24.635458	21.322373	26.763015	0.000000	0.000000	-0.000000	-0.000000	5.279960	1.113980	-1.510740	-0.112549	0.825315	0.552977	-1.000000	-1.000000	-1.000000	-1.000000	-1.000000	-1.000000	-1.000000	12.551724	0.000000	-1.000000	-1.000000	374919.000000	1772914686.469647
4403.205000	90769.455000	-11226.960000	-24919.335000	0.000000	0.000000	0.000000	0.000000	35.373162	25.662435	26.576243	30.877709	-0.000000	0.000000	-0.000000	-0.000000	5.279960	1.113980	-1.510740	-0.112549	0.825315	0.552977	-1.000000	-1.000000	-1.000000	-1.000000	-1.000000	-1.000000	-1.000000	12.551724	0.000000	-1.000000	-1.000000	374920.000000	1772914686.473629
4407.255000	90748.080000	-11215.080000	-24909.570000	0.000000	0.000000	0.000000	0.000000	20.787725	12.939966	19.669616	20.589414	-0.000000	0.000000	-0.000000	-0.000000	5.279960	1.113980	-1.510740	-0.112549	0.825315	0.552977	-1.000000	-1.000000	-1.000000	-1.000000	-1.000000	-1.000000	-1.000000	12.551724	0.000000	-1.000000	-1.000000	374921.000000	1772914686.473632
4406.130000	90731.835000	-11212.515000	-24907.095000	0.000000	0.000000	0.000000	0.000000	-2.280812	-6.648231	5.052429	2.318927	-0.000000	0.000000	-0.000000	-0.000000	5.279960	1.113980	-1.510740	-0.112549	0.825315	0.552977	-1.000000	-1.000000	-1.000000	-1.000000	-1.000000	-1.000000	-1.000000	12.551724	0.000000	-1.000000	-1.000000	374922.000000	1772914686.477555
4377.330000	90733.680000	-11242.305000	-24937.245000	0.000000	0.000000	0.000000	0.000000	-21.648908	-22.390007	-9.518620	-14.270945	-0.000000	0.000000	-0.000000	-0.000000	5.279960	1.113980	-1.510740	-0.112549	0.825315	0.552977	-1.000000	-1.000000	-1.000000	-1.000000	-1.000000	-1.000000	-1.000000	12.551724	0.000000	-1.000000	-1.000000	374923.000000	1772914686.477558
4373.280000	90751.860000	-11254.905000	-24947.820000	0.000000	0.000000	0.000000	0.000000	-30.265999	-25.703262	-19.445629	-23.826606	-0.000000	0.000000	-0.000000	-0.000000	6.760180	0.549360	-2.136400	-0.113647	0.828245	0.554442	-1.000000	-1.000000	-1.000000	-1.000000	-1.000000	-1.000000	-1.000000	12.413793	0.000000	-1.000000	-1.000000	374924.000000	1772914686.481631
4407.525000	90776.520000	-11230.470000	-24921.270000	0.000000	0.000000	0.000000	0.000000	-26.601287	-14.773270	-22.486219	-24.606334	-0.000000	0.000000	-0.000000	-0.000000	6.760180	0.549360	-2.136400	-0.113647	0.828245	0.554442	-1.000000	-1.000000	-1.000000	-1.000000	-1.000000	-1.000000	-1.000000	12.413793	0.000000	-1.000000	-1.000000	374925.000000	1772914686.481633
4430.025000	90792.405000	-11210.490000	-24899.895000	0.000000	0.000000	0.000000	0.000000	-11.837133	4.363275	-16.352746	-15.581837	-0.000000	0.000000	-0.000000	-0.000000	6.760180	0.549360	-2.136400	-0.113647	0.828245	0.554442	-1.000000	-1.000000	-1.000000	-1.000000	-1.000000	-1.000000	-1.000000	12.413793	0.000000	-1.000000	-1.000000	374926.000000	1772914686.486430
4419.360000	90793.980000	-11218.095000	-24910.650000	0.000000	0.000000	0.000000	0.000000	7.922607	21.031388	-2.564352	0.295264	-0.000000	0.000000	-0.000000	-0.000000	6.760180	0.549360	-2.136400	-0.113647	0.828245	0.554442	-1.000000	-1.000000	-1.000000	-1.000000	-1.000000	-1.000000	-1.000000	12.413793	0.000000	-1.000000	-1.000000	374927.000000	1772914686.486434
4413.915000	90779.355000	-11218.455000	-24914.115000	0.000000	0.000000	0.000000	0.000000	21.889793	25.935653	11.210082	14.345348	-0.000000	0.000000	-0.000000	-0.000000	6.760180	0.549360	-2.136400	-0.113647	0.828245	0.554442	-1.000000	-1.000000	-1.000000	-1.000000	-1.000000	-1.000000	-1.000000	12.413793	0.000000	-1.000000	-1.000000	374928.000000	1772914686.492278
4433.085000	90756.630000	-11189.835000	-24884.550000	0.000000	0.000000	0.000000	0.000000	23.051426	16.380217	17.747567	19.417743	-0.000000	0.000000	-0.000000	-0.000000	6.760180	0.549360	-2.136400	-0.113647	0.828245	0.554442	-1.000000	-1.000000	-1.000000	-1.000000	-1.000000	-1.000000	-1.000000	12.413793	0.000000	-1.000000	-1.000000	374929.000000	1772914686.492281
4419.630000	90733.320000	-11197.755000	-24891.075000	0.000000	0.000000	0.000000	0.000000	13.690212	-2.450334	16.191641	15.891875	-0.000000	0.000000	-0.000000	-0.000000	6.760180	0.549360	-2.136400	-0.113647	0.828245	0.554442	-1.000000	-1.000000	-1.000000	-1.000000	-1.000000	-1.000000	-1.000000	12.413793	0.000000	-1.000000	-1.000000	374930.000000	1772914686.495565
4399.515000	90726.930000	-11219.490000	-24909.165000	0.000000	0.000000	0.000000	0.000000	0.331235	-20.481078	8.876990	7.527848	-0.000000	0.000000	-0.000000	-0.000000	6.760180	0.549360	-2.136400	-0.113647	0.828245	0.554442	-1.000000	-1.000000	-1.000000	-1.000000	-1.000000	-1.000000	-1.000000	12.413793	0.000000	-1.000000	-1.000000	374931.000000	1772914686.495568
4405.905000	90737.280000	-11220.525000	-24908.715000	0.000000	0.000000	0.000000	0.000000	-11.523358	-27.989265	-1.870330	-2.834333	-0.000000	0.000000	-0.000000	-0.000000	6.760180	0.549360	-2.136400	-0.113647	0.828245	0.554442	-1.000000	-1.000000	-1.000000	-1.000000	-1.000000	-1.000000	-1.000000	12.413793	0.000000	-1.000000	-1.000000	374932.000000	1772914686.497548
4412.655000	90759.240000	-11218.320000	-24904.575000	0.000000	0.000000	0.000000	0.000000	-17.195417	-20.679051	-11.807447	-11.553971	-0.000000	0.000000	-0.000000	-0.000000	6.760180	0.549360	-2.136400	-0.113647	0.828245	0.554442	-1.000000	-1.000000	-1.000000	-1.000000	-1.000000	-1.000000	-1.000000	12.413793	0.000000	-1.000000	-1.000000	374933.000000	1772914686.497552
4412.745000	90778.455000	-11226.645000	-24916.230000	0.000000	0.000000	0.000000	0.000000	-14.278456	-2.192365	-15.942425	-14.767288	-0.000000	0.000000	-0.000000	-0.000000	5.798800	0.137340	-0.671440	-0.113098	0.831541	0.553954	-1.000000	-1.000000	-1.000000	-1.000000	-1.000000	-1.000000	-1.000000	12.413793	0.000000	-1.000000	-1.000000	374934.000000	1772914686.503749
4371.795000	90783.405000	-11271.465000	-24962.940000	0.000000	0.000000	0.000000	0.000000	-6.013197	17.626266	-13.682183	-12.730900	-0.000000	0.000000	-0.000000	-0.000000	5.798800	0.137340	-0.671440	-0.113098	0.831541	0.553954	-1.000000	-1.000000	-1.000000	-1.000000	-1.000000	-1.000000	-1.000000	12.413793	0.000000	-1.000000	-1.000000	374935.000000	1772914686.503753
4368.735000	90777.330000	-11270.205000	-24962.490000	0.000000	0.000000	0.000000	0.000000	0.830656	28.148680	-8.837305	-9.188601	-0.000000	0.000000	-0.000000	-0.000000	5.798800	0.137340	-0.671440	-0.113098	0.831541	0.553954	-1.000000	-1.000000	-1.000000	-1.000000	-1.000000	-1.000000	-1.000000	12.413793	0.000000	-1.000000	-1.000000	374936.000000	1772914686.505660
4361.310000	90757.935000	-11268.855000	-24962.580000	0.000000	0.000000	0.000000	0.000000	3.085917	23.973161	-3.565236	-5.360123	-0.000000	0.000000	-0.000000	-0.000000	5.798800	0.137340	-0.671440	-0.113098	0.831541	0.553954	-1.000000	-1.000000	-1.000000	-1.000000	-1.000000	-1.000000	-1.000000	12.413793	0.000000	-1.000000	-1.000000	374937.000000	1772914686.505662
4364.010000	90734.760000	-11258.955000	-24954.840000	0.000000	0.000000	0.000000	0.000000	3.234726	7.613423	3.240923	0.807011	-0.000000	0.000000	-0.000000	-0.000000	5.798800	0.137340	-0.671440	-0.113098	0.831541	0.553954	-1.000000	-1.000000	-1.000000	-1.000000	-1.000000	-1.000000	-1.000000	12.413793	0.000000	-1.000000	-1.000000	374938.000000	1772914686.509598
4400.055000	90724.410000	-11223.540000	-24918.075000	0.000000	0.000000	0.000000	0.000000	5.156136	-12.245153	12.018243	10.060535	-0.000000	0.000000	-0.000000	-0.000000	5.798800	0.137340	-0.671440	-0.113098	0.831541	0.553954	-1.000000	-1.000000	-1.000000	-1.000000	-1.000000	-1.000000	-1.000000	12.413793	0.000000	-1.000000	-1.000000	374939.000000	1772914686.509601
4416.210000	90730.395000	-11210.670000	-24902.865000	0.000000	0.000000	0.000000	0.000000	10.491479	-25.206602	20.609459	20.049378	-0.000000	0.000000	-0.000000	-0.000000	5.798800	0.137340	-0.671440	-0.113098	0.831541	0.553954	-1.000000	-1.000000	-1.000000	-1.000000	-1.000000	-1.000000	-1.000000	12.413793	0.000000	-1.000000	-1.000000	374940.000000	1772914686.513567
4428.675000	90753.210000	-11207.295000	-24897.555000	0.000000	0.000000	0.000000	0.000000	16.573773	-24.414607	24.521714	25.790185	-0.000000	0.000000	-0.000000	-0.000000	5.798800	0.137340	-0.671440	-0.113098	0.831541	0.553954	-1.000000	-1.000000	-1.000000	-1.000000	-1.000000	-1.000000	-1.000000	12.413793	0.000000	-1.000000	-1.000000	374941.000000	1772914686.513570
4410.720000	90774.495000	-11228.355000	-24914.610000	0.000000	0.000000	0.000000	0.000000	17.461853	-10.335220	19.128704	21.958108	-0.000000	0.000000	-0.000000	-0.000000	5.798800	0.137340	-0.671440	-0.113098	0.831541	0.553954	-1.000000	-1.000000	-1.000000	-1.000000	-1.000000	-1.000000	-1.000000	12.413793	0.000000	-1.000000	-1.000000	374942.000000	1772914686.517646
4380.705000	90784.260000	-11257.380000	-24944.400000	0.000000	0.000000	0.000000	0.000000	8.746237	9.160053	3.712841	7.171590	-0.000000	0.000000	-0.000000	-0.000000	5.798800	0.137340	-0.671440	-0.113098	0.831541	0.553954	-1.000000	-1.000000	-1.000000	-1.000000	-1.000000	-1.000000	-1.000000	12.413793	0.000000	-1.000000	-1.000000	374943.000000	1772914686.517649
4409.685000	90779.265000	-11234.025000	-24922.170000	0.000000	0.000000	0.000000	0.000000	-7.099822	23.074370	-15.627674	-12.880031	-0.000000	0.000000	-0.000000	-0.000000	4.349100	0.289940	-1.678600	-0.111755	0.833128	0.553038	-1.000000	-1.000000	-1.000000	-1.000000	-1.000000	-1.000000	-1.000000	12.413793	0.000000	-1.000000	-1.000000	374944.000000	1772914686.521699
4414.725000	90763.470000	-11220.570000	-24911.955000	0.000000	0.000000	0.000000	0.000000	-20.283564	23.754953	-27.798393	-27.026823	-0.000000	0.000000	-0.000000	-0.000000	4.349100	0.289940	-1.678600	-0.111755	0.833128	0.553038	-1.000000	-1.000000	-1.000000	-1.000000	-1.000000	-1.000000	-1.000000	12.413793	0.000000	-1.000000	-1.000000	374945.000000	1772914686.521701
4382.640000	90749.295000	-11245.770000	-24938.730000	0.000000	0.000000	0.000000	0.000000	-23.061812	11.340817	-26.013716	-27.747102	-0.000000	0.000000	-0.000000	-0.000000	4.349100	0.289940	-1.678600	-0.111755	0.833128	0.553038	-1.000000	-1.000000	-1.000000	-1.000000	-1.000000	-1.000000	-1.000000	12.413793	0.000000	-1.000000	-1.000000	374946.000000	1772914686.525713
4355.505000	90738.720000	-11268.765000	-24962.085000	0.000000	0.000000	0.000000	0.000000	-17.646821	-6.697136	-14.729403	-18.345595	-0.000000	0.000000	-0.000000	-0.000000	4.349100	0.289940	-1.678600	-0.111755	0.833128	0.553038	-1.000000	-1.000000	-1.000000	-1.000000	-1.000000	-1.000000	-1.000000	12.413793	0.000000	-1.000000	-1.000000	374947.000000	1772914686.525717
4363.560000	90739.170000	-11261.205000	-24955.245000	0.000000	0.000000	0.000000	0.000000	-10.244978	-20.370648	-3.044001	-7.003247	-0.000000	0.000000	-0.000000	-0.000000	4.349100	0.289940	-1.678600	-0.111755	0.833128	0.553038	-1.000000	-1.000000	-1.000000	-1.000000	-1.000000	-1.000000	-1.000000	12.413793	0.000000	-1.000000	-1.000000	374948.000000	1772914686.529632
4384.980000	90756.675000	-11244.465000	-24937.065000	0.000000	0.000000	0.000000	0.000000	-2.328037	-22.717563	5.324179	2.676762	-0.000000	0.000000	-0.000000	-0.000000	4.349100	0.289940	-1.678600	-0.111755	0.833128	0.553038	-1.000000	-1.000000	-1.000000	-1.000000	-1.000000	-1.000000	-1.000000	12.413793	0.000000	-1.000000	-1.000000	374949.000000	1772914686.529635
4409.730000	90779.220000	-11226.195000	-24915.555000	0.000000	0.000000	0.000000	0.000000	7.831564	-12.874616	11.858150	11.546448	-0.000000	0.000000	-0.000000	-0.000000	4.349100	0.289940	-1.678600	-0.111755	0.833128	0.553038	-1.000000	-1.000000	-1.000000	-1.000000	-1.000000	-1.000000	-1.000000	12.413793	0.000000	-1.000000	-1.000000	374950.000000	1772914686.533736
4418.730000	90794.160000	-11224.440000	-24911.100000	0.000000	0.000000	0.000000	0.000000	18.840605	3.745432	17.056056	19.174599	-0.000000	0.000000	-0.000000	-0.000000	4.349100	0.289940	-1.678600	-0.111755	0.833128	0.553038	-1.000000	-1.000000	-1.000000	-1.000000	-1.000000	-1.000000	-1.000000	12.413793	0.000000	-1.000000	-1.000000	374951.000000	1772914686.533739
4415.895000	90792.630000	-11227.545000	-24913.845000	0.000000	0.000000	0.000000	0.000000	25.009007	18.006784	18.231086	21.933984	-0.000000	0.000000	-0.000000	-0.000000	4.349100	0.289940	-1.678600	-0.111755	0.833128	0.553038	-1.000000	-1.000000	-1.000000	-1.000000	-1.000000	-1.000000	-1.000000	12.413793	0.000000	-1.000000	-1.000000	374952.000000	1772914686.537592
4405.770000	90776.430000	-11231.145000	-24915.870000	0.000000	0.000000	0.000000	0.000000	21.132022	21.861405	12.877950	16.662958	-0.000000	0.000000	-0.000000	-0.000000	4.349100	0.289940	-1.678600	-0.111755	0.833128	0.553038	-1.000000	-1.000000	-1.000000	-1.000000	-1.000000	-1.000000	-1.000000	12.413793	0.000000	-1.000000	-1.000000	374953.000000	1772914686.537595
4392.270000	90751.230000	-11233.620000	-24918.390000	0.000000	0.000000	0.000000	0.000000	7.474013	12.956146	2.329283	4.718891	-0.000000	0.000000	-0.000000	-0.000000	1.403920	0.595140	-1.251320	-0.110595	0.835264	0.553771	-1.000000	-1.000000	-1.000000	-1.000000	-1.000000	-1.000000	-1.000000	12.413793	0.000000	-1.000000	-1.000000	374954.000000	1772914686.541690
4386.690000	90731.295000	-11232.045000	-24918.255000	0.000000	0.000000	0.000000	0.000000	-9.750777	-3.910826	-8.601650	-8.413914	-0.000000	0.000000	-0.000000	-0.000000	1.403920	0.595140	-1.251320	-0.110595	0.835264	0.553771	-1.000000	-1.000000	-1.000000	-1.000000	-1.000000	-1.000000	-1.000000	12.413793	0.000000	-1.000000	-1.000000	374955.000000	1772914686.541693
4385.970000	90726.345000	-11238.930000	-24934.320000	0.000000	0.000000	0.000000	0.000000	-22.147717	-19.344901	-15.099951	-17.197395	-0.000000	0.000000	-0.000000	-0.000000	1.403920	0.595140	-1.251320	-0.110595	0.835264	0.553771	-1.000000	-1.000000	-1.000000	-1.000000	-1.000000	-1.000000	-1.000000	12.413793	0.000000	-1.000000	-1.000000	374956.000000	1772914686.545692
4423.860000	90741.870000	-11211.255000	-24910.470000	0.000000	0.000000	0.000000	0.000000	-23.505222	-24.417181	-14.837856	-18.846598	-0.000000	0.000000	-0.000000	-0.000000	1.403920	0.595140	-1.251320	-0.110595	0.835264	0.553771	-1.000000	-1.000000	-1.000000	-1.000000	-1.000000	-1.000000	-1.000000	12.413793	0.000000	-1.000000	-1.000000	374957.000000	1772914686.545696
4447.440000	90766.215000	-11194.110000	-24886.170000	0.000000	0.000000	0.000000	0.000000	-12.652164	-15.626274	-7.951579	-12.737260	-0.000000	0.000000	-0.000000	-0.000000	1.403920	0.595140	-1.251320	-0.110595	0.835264	0.553771	-1.000000	-1.000000	-1.000000	-1.000000	-1.000000	-1.000000	-1.000000	12.413793	0.000000	-1.000000	-1.000000	374958.000000	1772914686.549639
4437.360000	90785.025000	-11206.890000	-24893.820000	0.000000	0.000000	0.000000	0.000000	4.384695	2.777061	2.147829	-1.174623	-0.000000	0.000000	-0.000000	-0.000000	1.403920	0.595140	-1.251320	-0.110595	0.835264	0.553771	-1.000000	-1.000000	-1.000000	-1.000000	-1.000000	-1.000000	-1.000000	12.413793	0.000000	-1.000000	-1.000000	374959.000000	1772914686.549642
4418.460000	90790.515000	-11227.680000	-24918.255000	0.000000	0.000000	0.000000	0.000000	16.330818	20.780277	8.695362	8.911391	-0.000000	0.000000	-0.000000	-0.000000	1.403920	0.595140	-1.251320	-0.110595	0.835264	0.553771	-1.000000	-1.000000	-1.000000	-1.000000	-1.000000	-1.000000	-1.000000	12.413793	0.000000	-1.000000	-1.000000	374960.000000	1772914686.553664
4406.265000	90781.155000	-11236.140000	-24931.620000	0.000000	0.000000	0.000000	0.000000	15.335059	28.306493	6.906200	10.512320	-0.000000	0.000000	-0.000000	-0.000000	1.403920	0.595140	-1.251320	-0.110595	0.835264	0.553771	-1.000000	-1.000000	-1.000000	-1.000000	-1.000000	-1.000000	-1.000000	12.413793	0.000000	-1.000000	-1.000000	374961.000000	1772914686.553666
4382.010000	90758.565000	-11253.060000	-24949.890000	0.000000	0.000000	0.000000	0.000000	3.332942	21.023321	-1.164831	3.395899	-0.000000	0.000000	-0.000000	-0.000000	1.403920	0.595140	-1.251320	-0.110595	0.835264	0.553771	-1.000000	-1.000000	-1.000000	-1.000000	-1.000000	-1.000000	-1.000000	12.413793	0.000000	-1.000000	-1.000000	374962.000000	1772914686.560757
4365.000000	90735.525000	-11263.050000	-24959.655000	0.000000	0.000000	0.000000	0.000000	-11.064450	2.573634	-9.150043	-6.210466	-0.000000	0.000000	-0.000000	-0.000000	1.403920	0.595140	-1.251320	-0.110595	0.835264	0.553771	-1.000000	-1.000000	-1.000000	-1.000000	-1.000000	-1.000000	-1.000000	12.413793	0.000000	-1.000000	-1.000000	374963.000000	1772914686.560760
4368.105000	90724.185000	-11255.355000	-24950.115000	0.000000	0.000000	0.000000	0.000000	-19.124739	-17.519859	-11.562261	-11.095757	-0.000000	0.000000	-0.000000	-0.000000	0.305200	0.381500	-1.953280	-0.111145	0.833677	0.551451	-1.000000	-1.000000	-1.000000	-1.000000	-1.000000	-1.000000	-1.000000	12.413793	0.000000	-1.000000	-1.000000	374964.000000	1772914686.561712
4395.510000	90732.420000	-11232.090000	-24923.250000	0.000000	0.000000	0.000000	0.000000	-15.755181	-28.751315	-6.121585	-7.177916	-0.000000	0.000000	-0.000000	-0.000000	0.305200	0.381500	-1.953280	-0.111145	0.833677	0.551451	-1.000000	-1.000000	-1.000000	-1.000000	-1.000000	-1.000000	-1.000000	12.413793	0.000000	-1.000000	-1.000000	374965.000000	1772914686.561716
4403.745000	90757.755000	-11229.075000	-24916.365000	0.000000	0.000000	0.000000	0.000000	-1.796360	-24.987922	5.170176	4.217810	-0.000000	0.000000	-0.000000	-0.000000	0.305200	0.381500	-1.953280	-0.111145	0.833677	0.551451	-1.000000	-1.000000	-1.000000	-1.000000	-1.000000	-1.000000	-1.000000	12.413793	0.000000	-1.000000	-1.000000	374966.000000	1772914686.565932
4422.465000	90779.310000	-11214.900000	-24899.715000	0.000000	0.000000	0.000000	0.000000	15.418684	-7.909846	16.205274	16.431553	-0.000000	0.000000	-0.000000	-0.000000	0.305200	0.381500	-1.953280	-0.111145	0.833677	0.551451	-1.000000	-1.000000	-1.000000	-1.000000	-1.000000	-1.000000	-1.000000	12.413793	0.000000	-1.000000	-1.000000	374967.000000	1772914686.565934
4470.705000	90790.335000	-11168.595000	-24851.115000	0.000000	0.000000	0.000000	0.000000	27.178080	13.389040	21.433723	22.758188	-0.000000	0.000000	-0.000000	-0.000000	0.305200	0.381500	-1.953280	-0.111145	0.833677	0.551451	-1.000000	-1.000000	-1.000000	-1.000000	-1.000000	-1.000000	-1.000000	12.413793	0.000000	-1.000000	-1.000000	374968.000000	1772914686.571259
4446.270000	90780.480000	-11193.075000	-24879.555000	0.000000	0.000000	0.000000	0.000000	28.649560	27.202176	19.296613	20.652724	-0.000000	0.000000	-0.000000	-0.000000	0.305200	0.381500	-1.953280	-0.111145	0.833677	0.551451	-1.000000	-1.000000	-1.000000	-1.000000	-1.000000	-1.000000	-1.000000	12.413793	0.000000	-1.000000	-1.000000	374969.000000	1772914686.571261
4417.470000	90760.815000	-11213.505000	-24899.310000	0.000000	0.000000	0.000000	0.000000	17.873628	25.939710	9.461847	9.505507	-0.000000	0.000000	-0.000000	-0.000000	0.305200	0.381500	-1.953280	-0.111145	0.833677	0.551451	-1.000000	-1.000000	-1.000000	-1.000000	-1.000000	-1.000000	-1.000000	12.413793	0.000000	-1.000000	-1.000000	374970.000000	1772914686.573638
4398.930000	90737.685000	-11229.840000	-24919.830000	0.000000	0.000000	0.000000	0.000000	-3.293215	10.521594	-6.872905	-8.843422	-0.000000	0.000000	-0.000000	-0.000000	0.305200	0.381500	-1.953280	-0.111145	0.833677	0.551451	-1.000000	-1.000000	-1.000000	-1.000000	-1.000000	-1.000000	-1.000000	12.413793	0.000000	-1.000000	-1.000000	374971.000000	1772914686.573641
4375.440000	90720.360000	-11253.510000	-24946.110000	0.000000	0.000000	0.000000	0.000000	-26.043115	-10.383813	-23.584529	-27.185249	-0.000000	0.000000	-0.000000	-0.000000	0.305200	0.381500	-1.953280	-0.111145	0.833677	0.551451	-1.000000	-1.000000	-1.000000	-1.000000	-1.000000	-1.000000	-1.000000	12.413793	0.000000	-1.000000	-1.000000	374972.000000	1772914686.580202
4361.895000	90718.920000	-11270.295000	-24960.420000	0.000000	0.000000	0.000000	0.000000	-39.054222	-25.530634	-32.651958	-36.621759	-0.000000	0.000000	-0.000000	-0.000000	0.305200	0.381500	-1.953280	-0.111145	0.833677	0.551451	-1.000000	-1.000000	-1.000000	-1.000000	-1.000000	-1.000000	-1.000000	12.413793	0.000000	-1.000000	-1.000000	374973.000000	1772914686.580206
4373.955000	90733.635000	-11264.715000	-24954.480000	0.000000	0.000000	0.000000	0.000000	-35.833081	-27.074796	-29.452732	-32.132422	-0.000000	0.000000	-0.000000	-0.000000	2.411080	0.015260	-0.320460	-0.112671	0.832090	0.552489	-1.000000	-1.000000	-1.000000	-1.000000	-1.000000	-1.000000	-1.000000	12.413793	0.000000	-1.000000	-1.000000	374974.000000	1772914686.581766
4394.655000	90756.315000	-11249.955000	-24938.100000	0.000000	0.000000	0.000000	0.000000	-17.287480	-14.308522	-14.393947	-14.536383	-0.000000	0.000000	-0.000000	-0.000000	2.411080	0.015260	-0.320460	-0.112671	0.832090	0.552489	-1.000000	-1.000000	-1.000000	-1.000000	-1.000000	-1.000000	-1.000000	12.413793	0.000000	-1.000000	-1.000000	374975.000000	1772914686.581768
4401.360000	90770.670000	-11246.715000	-24931.305000	0.000000	0.000000	0.000000	0.000000	8.738182	6.074655	6.978317	9.503001	-0.000000	0.000000	-0.000000	-0.000000	2.411080	0.015260	-0.320460	-0.112671	0.832090	0.552489	-1.000000	-1.000000	-1.000000	-1.000000	-1.000000	-1.000000	-1.000000	12.413793	0.000000	-1.000000	-1.000000	374976.000000	1772914686.588746
4393.035000	90775.845000	-11255.040000	-24938.685000	0.000000	0.000000	0.000000	0.000000	30.139337	23.407568	25.264304	29.495179	-0.000000	0.000000	-0.000000	-0.000000	2.411080	0.015260	-0.320460	-0.112671	0.832090	0.552489	-1.000000	-1.000000	-1.000000	-1.000000	-1.000000	-1.000000	-1.000000	12.413793	0.000000	-1.000000	-1.000000	374977.000000	1772914686.588748
4399.515000	90762.390000	-11241.855000	-24928.155000	0.000000	0.000000	0.000000	0.000000	37.101270	28.725644	32.356479	36.658573	-0.000000	0.000000	-0.000000	-0.000000	2.411080	0.015260	-0.320460	-0.112671	0.832090	0.552489	-1.000000	-1.000000	-1.000000	-1.000000	-1.000000	-1.000000	-1.000000	12.413793	0.000000	-1.000000	-1.000000	374978.000000	1772914686.591510
4433.760000	90743.265000	-11198.745000	-24888.195000	0.000000	0.000000	0.000000	0.000000	29.049880	19.442748	27.673497	30.267300	-0.000000	0.000000	-0.000000	-0.000000	2.411080	0.015260	-0.320460	-0.112671	0.832090	0.552489	-1.000000	-1.000000	-1.000000	-1.000000	-1.000000	-1.000000	-1.000000	12.413793	0.000000	-1.000000	-1.000000	374979.000000	1772914686.591512
4437.585000	90724.860000	-11188.215000	-24878.880000	0.000000	0.000000	0.000000	0.000000	13.806856	0.544752	17.326599	17.098246	-0.000000	0.000000	-0.000000	-0.000000	2.411080	0.015260	-0.320460	-0.112671	0.832090	0.552489	-1.000000	-1.000000	-1.000000	-1.000000	-1.000000	-1.000000	-1.000000	12.413793	0.000000	-1.000000	-1.000000	374980.000000	1772914686.594664
4378.410000	90713.340000	-11247.525000	-24935.490000	0.000000	0.000000	0.000000	0.000000	-1.927263	-18.213227	5.270586	2.537916	-0.000000	0.000000	-0.000000	-0.000000	2.411080	0.015260	-0.320460	-0.112671	0.832090	0.552489	-1.000000	-1.000000	-1.000000	-1.000000	-1.000000	-1.000000	-1.000000	12.413793	0.000000	-1.000000	-1.000000	374981.000000	1772914686.594667
4335.795000	90720.045000	-11295.720000	-24985.395000	0.000000	0.000000	0.000000	0.000000	-17.554826	-27.499756	-10.307691	-13.910554	-0.000000	0.000000	-0.000000	-0.000000	2.411080	0.015260	-0.320460	-0.112671	0.832090	0.552489	-1.000000	-1.000000	-1.000000	-1.000000	-1.000000	-1.000000	-1.000000	12.413793	0.000000	-1.000000	-1.000000	374982.000000	1772914686.603027
4357.665000	90744.030000	-11283.255000	-24972.390000	0.000000	0.000000	0.000000	0.000000	-30.995702	-22.794253	-27.913013	-30.580250	-0.000000	0.000000	-0.000000	-0.000000	2.411080	0.015260	-0.320460	-0.112671	0.832090	0.552489	-1.000000	-1.000000	-1.000000	-1.000000	-1.000000	-1.000000	-1.000000	12.413793	0.000000	-1.000000	-1.000000	374983.000000	1772914686.603030
4427.910000	90769.005000	-11223.045000	-24904.620000	0.000000	0.000000	0.000000	0.000000	-32.728871	-6.315187	-36.255191	-36.935092	-0.000000	0.000000	-0.000000	-0.000000	1.663340	1.022420	-3.570840	-0.112549	0.833128	0.553954	-1.000000	-1.000000	-1.000000	-1.000000	-1.000000	-1.000000	-1.000000	12.413793	0.000000	-1.000000	-1.000000	374984.000000	1772914686.603035
4445.280000	90775.575000	-11204.190000	-24886.350000	0.000000	0.000000	0.000000	0.000000	-15.545197	13.555485	-24.749762	-23.243855	-0.000000	0.000000	-0.000000	-0.000000	1.663340	1.022420	-3.570840	-0.112549	0.833128	0.553954	-1.000000	-1.000000	-1.000000	-1.000000	-1.000000	-1.000000	-1.000000	12.413793	0.000000	-1.000000	-1.000000	374985.000000	1772914686.603037
4405.635000	90763.875000	-11228.355000	-24914.250000	0.000000	0.000000	0.000000	0.000000	11.712454	25.960396	1.292801	4.173657	-0.000000	0.000000	-0.000000	-0.000000	1.663340	1.022420	-3.570840	-0.112549	0.833128	0.553954	-1.000000	-1.000000	-1.000000	-1.000000	-1.000000	-1.000000	-1.000000	12.413793	0.000000	-1.000000	-1.000000	374986.000000	1772914686.606088
4372.785000	90745.830000	-11249.775000	-24943.815000	0.000000	0.000000	0.000000	0.000000	28.673082	23.810849	23.078498	25.467134	-0.000000	0.000000	-0.000000	-0.000000	1.663340	1.022420	-3.570840	-0.112549	0.833128	0.553954	-1.000000	-1.000000	-1.000000	-1.000000	-1.000000	-1.000000	-1.000000	12.413793	0.000000	-1.000000	-1.000000	374987.000000	1772914686.606091
4371.120000	90725.445000	-11258.235000	-24952.095000	0.000000	0.000000	0.000000	0.000000	23.834158	8.482997	26.606859	26.654237	-0.000000	0.000000	-0.000000	-0.000000	1.663340	1.022420	-3.570840	-0.112549	0.833128	0.553954	-1.000000	-1.000000	-1.000000	-1.000000	-1.000000	-1.000000	-1.000000	12.413793	0.000000	-1.000000	-1.000000	374988.000000	1772914686.610469
4377.915000	90714.015000	-11252.520000	-24943.320000	0.000000	0.000000	0.000000	0.000000	4.896857	-11.142118	14.026414	11.548007	-0.000000	0.000000	-0.000000	-0.000000	1.663340	1.022420	-3.570840	-0.112549	0.833128	0.553954	-1.000000	-1.000000	-1.000000	-1.000000	-1.000000	-1.000000	-1.000000	12.413793	0.000000	-1.000000	-1.000000	374989.000000	1772914686.610472
4417.920000	90720.180000	-11209.950000	-24899.895000	0.000000	0.000000	0.000000	0.000000	-11.060158	-24.195034	-1.414581	-4.601729	-0.000000	0.000000	-0.000000	-0.000000	1.663340	1.022420	-3.570840	-0.112549	0.833128	0.553954	-1.000000	-1.000000	-1.000000	-1.000000	-1.000000	-1.000000	-1.000000	12.413793	0.000000	-1.000000	-1.000000	374990.000000	1772914686.613691
4433.355000	90743.355000	-11197.485000	-24881.670000	0.000000	0.000000	0.000000	0.000000	-12.872740	-23.661513	-7.751892	-9.306682	-0.000000	0.000000	-0.000000	-0.000000	1.663340	1.022420	-3.570840	-0.112549	0.833128	0.553954	-1.000000	-1.000000	-1.000000	-1.000000	-1.000000	-1.000000	-1.000000	12.413793	0.000000	-1.000000	-1.000000	374991.000000	1772914686.613693
4441.680000	90766.980000	-11200.230000	-24884.055000	0.000000	0.000000	0.000000	0.000000	-2.561255	-9.874506	-3.729854	-2.463280	-0.000000	0.000000	-0.000000	-0.000000	1.663340	1.022420	-3.570840	-0.112549	0.833128	0.553954	-1.000000	-1.000000	-1.000000	-1.000000	-1.000000	-1.000000	-1.000000	12.413793	0.000000	-1.000000	-1.000000	374992.000000	1772914686.617668
4435.650000	90777.330000	-11217.330000	-24909.390000	0.000000	0.000000	0.000000	0.000000	8.822792	9.475967	2.286562	5.591507	-0.000000	0.000000	-0.000000	-0.000000	1.663340	1.022420	-3.570840	-0.112549	0.833128	0.553954	-1.000000	-1.000000	-1.000000	-1.000000	-1.000000	-1.000000	-1.000000	12.413793	0.000000	-1.000000	-1.000000	374993.000000	1772914686.617671
4398.750000	90768.600000	-11250.540000	-24943.455000	0.000000	0.000000	0.000000	0.000000	11.066390	23.315018	1.814566	4.808910	-0.000000	0.000000	-0.000000	-0.000000	-0.366240	0.427280	-2.472120	-0.111633	0.832884	0.552916	-1.000000	-1.000000	-1.000000	-1.000000	-1.000000	-1.000000	-1.000000	12.413793	0.000000	-1.000000	-1.000000	374994.000000	1772914686.621671
4369.410000	90749.115000	-11268.585000	-24965.190000	0.000000	0.000000	0.000000	0.000000	1.409702	23.602333	-6.435057	-5.868272	-0.000000	0.000000	-0.000000	-0.000000	-0.366240	0.427280	-2.472120	-0.111633	0.832884	0.552916	-1.000000	-1.000000	-1.000000	-1.000000	-1.000000	-1.000000	-1.000000	12.413793	0.000000	-1.000000	-1.000000	374995.000000	1772914686.621674
4372.695000	90731.565000	-11258.505000	-24953.670000	0.000000	0.000000	0.000000	0.000000	-13.772499	10.323185	-15.887733	-18.007738	-0.000000	0.000000	-0.000000	-0.000000	-0.366240	0.427280	-2.472120	-0.111633	0.832884	0.552916	-1.000000	-1.000000	-1.000000	-1.000000	-1.000000	-1.000000	-1.000000	12.413793	0.000000	-1.000000	-1.000000	374996.000000	1772914686.625684
4372.020000	90719.145000	-11259.135000	-24950.430000	0.000000	0.000000	0.000000	0.000000	-22.997575	-8.581961	-17.678590	-20.859343	-0.000000	0.000000	-0.000000	-0.000000	-0.366240	0.427280	-2.472120	-0.111633	0.832884	0.552916	-1.000000	-1.000000	-1.000000	-1.000000	-1.000000	-1.000000	-1.000000	12.413793	0.000000	-1.000000	-1.000000	374997.000000	1772914686.625687
4371.345000	90719.550000	-11265.840000	-24951.600000	0.000000	0.000000	0.000000	0.000000	-19.067227	-22.380747	-8.992127	-10.895710	-0.000000	0.000000	-0.000000	-0.000000	-0.366240	0.427280	-2.472120	-0.111633	0.832884	0.552916	-1.000000	-1.000000	-1.000000	-1.000000	-1.000000	-1.000000	-1.000000	12.413793	0.000000	-1.000000	-1.000000	374998.000000	1772914686.629645
4387.905000	90738.405000	-11257.020000	-24939.630000	0.000000	0.000000	0.000000	0.000000	-4.300754	-23.715222	4.905708	5.810745	-0.000000	0.000000	-0.000000	-0.000000	-0.366240	0.427280	-2.472120	-0.111633	0.832884	0.552916	-1.000000	-1.000000	-1.000000	-1.000000	-1.000000	-1.000000	-1.000000	12.413793	0.000000	-1.000000	-1.000000	374999.000000	1772914686.629649
4413.330000	90763.965000	-11235.825000	-24917.310000	0.000000	0.000000	0.000000	0.000000	13.457322	-11.985950	16.849132	20.282502	0.000000	0.000000	-0.000000	-0.000000	-0.366240	0.427280	-2.472120	-0.111633	0.832884	0.552916	-1.000000	-1.000000	-1.000000	-1.000000	-1.000000	-1.000000	-1.000000	12.413793	0.000000	-1.000000	-1.000000	375000.000000	1772914686.633732
4417.470000	90780.750000	-11232.765000	-24914.430000	0.000000	0.000000	0.000000	0.000000	26.368272	6.596967	22.710174	26.770120	0.000000	0.000000	-0.000000	-0.000000	-0.366240	0.427280	-2.472120	-0.111633	0.832884	0.552916	-1.000000	-1.000000	-1.000000	-1.000000	-1.000000	-1.000000	-1.000000	12.413793	0.000000	-1.000000	-1.000000	375001.000000	1772914686.633739
4419.675000	90777.465000	-11229.255000	-24912.045000	0.000000	0.000000	0.000000	0.000000	28.879109	21.900159	21.005167	23.396391	0.000000	0.000000	-0.000000	-0.000000	-0.366240	0.427280	-2.472120	-0.111633	0.832884	0.552916	-1.000000	-1.000000	-1.000000	-1.000000	-1.000000	-1.000000	-1.000000	12.413793	0.000000	-1.000000	-1.000000	375002.000000	1772914686.639114
4390.695000	90760.185000	-11253.735000	-24942.645000	0.000000	0.000000	0.000000	0.000000	19.256608	25.163508	11.911712	11.203536	0.000000	0.000000	-0.000000	-0.000000	-0.366240	0.427280	-2.472120	-0.111633	0.832884	0.552916	-1.000000	-1.000000	-1.000000	-1.000000	-1.000000	-1.000000	-1.000000	12.413793	0.000000	-1.000000	-1.000000	375003.000000	1772914686.639123
4374.810000	90736.785000	-11259.090000	-24948.270000	0.000000	0.000000	0.000000	0.000000	0.784984	14.231716	-2.089264	-5.882378	0.000000	0.000000	-0.000000	-0.000000	-4.211760	1.068200	-1.526000	-0.110412	0.835752	0.550597	-1.000000	-1.000000	-1.000000	-1.000000	-1.000000	-1.000000	-1.000000	12.413793	0.000000	-1.000000	-1.000000	375004.000000	1772914686.641674
4370.490000	90715.995000	-11257.110000	-24947.145000	0.000000	0.000000	0.000000	0.000000	-18.491407	-4.985978	-15.454408	-20.855891	0.000000	0.000000	-0.000000	-0.000000	-4.211760	1.068200	-1.526000	-0.110412	0.835752	0.550597	-1.000000	-1.000000	-1.000000	-1.000000	-1.000000	-1.000000	-1.000000	12.413793	0.000000	-1.000000	-1.000000	375005.000000	1772914686.641685
4378.770000	90706.230000	-11249.640000	-24938.955000	0.000000	0.000000	0.000000	0.000000	-28.954119	-22.067940	-21.617529	-26.312853	0.000000	0.000000	-0.000000	-0.000000	-4.211760	1.068200	-1.526000	-0.110412	0.835752	0.550597	-1.000000	-1.000000	-1.000000	-1.000000	-1.000000	-1.000000	-1.000000	12.413793	0.000000	-1.000000	-1.000000	375006.000000	1772914686.645624
4378.230000	90715.500000	-11255.220000	-24942.825000	0.000000	0.000000	0.000000	0.000000	-25.520402	-27.908280	-17.910368	-19.925408	0.000000	0.000000	-0.000000	-0.000000	-4.211760	1.068200	-1.526000	-0.110412	0.835752	0.550597	-1.000000	-1.000000	-1.000000	-1.000000	-1.000000	-1.000000	-1.000000	12.413793	0.000000	-1.000000	-1.000000	375007.000000	1772914686.645634
4393.710000	90738.180000	-11248.920000	-24935.445000	0.000000	0.000000	0.000000	0.000000	-11.060837	-19.221652	-7.614592	-6.253844	0.000000	0.000000	-0.000000	-0.000000	-4.211760	1.068200	-1.526000	-0.110412	0.835752	0.550597	-1.000000	-1.000000	-1.000000	-1.000000	-1.000000	-1.000000	-1.000000	12.413793	0.000000	-1.000000	-1.000000	375008.000000	1772914686.649681
4423.275000	90758.610000	-11229.300000	-24916.230000	0.000000	0.000000	0.000000	0.000000	6.871463	-0.098052	3.694694	7.629629	0.000000	0.000000	-0.000000	-0.000000	-4.211760	1.068200	-1.526000	-0.110412	0.835752	0.550597	-1.000000	-1.000000	-1.000000	-1.000000	-1.000000	-1.000000	-1.000000	12.413793	0.000000	-1.000000	-1.000000	375009.000000	1772914686.649687
4416.615000	90763.335000	-11235.825000	-24921.315000	0.000000	0.000000	0.000000	0.000000	20.709033	19.725397	11.862300	16.583628	0.000000	0.000000	-0.000000	-0.000000	-4.211760	1.068200	-1.526000	-0.110412	0.835752	0.550597	-1.000000	-1.000000	-1.000000	-1.000000	-1.000000	-1.000000	-1.000000	12.413793	0.000000	-1.000000	-1.000000	375010.000000	1772914686.653635
4418.730000	90754.290000	-11227.770000	-24916.545000	0.000000	0.000000	0.000000	0.000000	24.682131	29.732036	14.382411	18.031925	0.000000	0.000000	-0.000000	-0.000000	-4.211760	1.068200	-1.526000	-0.110412	0.835752	0.550597	-1.000000	-1.000000	-1.000000	-1.000000	-1.000000	-1.000000	-1.000000	12.413793	0.000000	-1.000000	-1.000000	375011.000000	1772914686.653649
4437.135000	90733.365000	-11202.300000	-24893.595000	0.000000	0.000000	0.000000	0.000000	17.656676	24.534284	11.343903	12.685275	0.000000	0.000000	-0.000000	-0.000000	-4.211760	1.068200	-1.526000	-0.110412	0.835752	0.550597	-1.000000	-1.000000	-1.000000	-1.000000	-1.000000	-1.000000	-1.000000	12.413793	0.000000	-1.000000	-1.000000	375012.000000	1772914686.657670
4418.685000	90710.820000	-11212.425000	-24904.800000	0.000000	0.000000	0.000000	0.000000	4.384402	6.940668	5.618915	4.392113	0.000000	0.000000	-0.000000	-0.000000	-4.211760	1.068200	-1.526000	-0.110412	0.835752	0.550597	-1.000000	-1.000000	-1.000000	-1.000000	-1.000000	-1.000000	-1.000000	12.413793	0.000000	-1.000000	-1.000000	375013.000000	1772914686.657675
4365.945000	90697.770000	-11260.620000	-24950.430000	0.000000	0.000000	0.000000	0.000000	-9.871869	-13.778017	-1.433620	-4.345599	0.000000	0.000000	-0.000000	-0.000000	-3.418240	-0.549360	-0.427280	-0.114868	0.834043	0.555480	-1.000000	-1.000000	-1.000000	-1.000000	-1.000000	-1.000000	-1.000000	12.413793	0.000000	-1.000000	-1.000000	375014.000000	1772914686.661698
4381.470000	90706.635000	-11250.495000	-24936.390000	0.000000	0.000000	0.000000	0.000000	-21.784486	-26.833286	-10.201895	-13.069552	0.000000	0.000000	-0.000000	-0.000000	-3.418240	-0.549360	-0.427280	-0.114868	0.834043	0.555480	-1.000000	-1.000000	-1.000000	-1.000000	-1.000000	-1.000000	-1.000000	12.413793	0.000000	-1.000000	-1.000000	375015.000000	1772914686.661702
4397.130000	90734.220000	-11244.105000	-24927.975000	0.000000	0.000000	0.000000	0.000000	-26.003617	-25.272987	-17.091024	-18.263663	0.000000	0.000000	-0.000000	-0.000000	-3.418240	-0.549360	-0.427280	-0.114868	0.834043	0.555480	-1.000000	-1.000000	-1.000000	-1.000000	-1.000000	-1.000000	-1.000000	12.413793	0.000000	-1.000000	-1.000000	375016.000000	1772914686.665761
4417.380000	90759.060000	-11229.930000	-24911.820000	0.000000	0.000000	0.000000	0.000000	-17.616763	-9.732111	-15.958949	-14.884974	0.000000	0.000000	-0.000000	-0.000000	-3.418240	-0.549360	-0.427280	-0.114868	0.834043	0.555480	-1.000000	-1.000000	-1.000000	-1.000000	-1.000000	-1.000000	-1.000000	12.413793	0.000000	-1.000000	-1.000000	375017.000000	1772914686.665765
4437.045000	90771.390000	-11210.850000	-24893.550000	0.000000	0.000000	0.000000	0.000000	0.669968	11.255624	-5.617632	-3.139587	0.000000	0.000000	-0.000000	-0.000000	-3.418240	-0.549360	-0.427280	-0.114868	0.834043	0.555480	-1.000000	-1.000000	-1.000000	-1.000000	-1.000000	-1.000000	-1.000000	12.413793	0.000000	-1.000000	-1.000000	375018.000000	1772914686.670375
4441.455000	90767.745000	-11201.670000	-24889.095000	0.000000	0.000000	0.000000	0.000000	19.106565	25.772922	8.561852	10.747372	0.000000	0.000000	-0.000000	-0.000000	-3.418240	-0.549360	-0.427280	-0.114868	0.834043	0.555480	-1.000000	-1.000000	-1.000000	-1.000000	-1.000000	-1.000000	-1.000000	12.413793	0.000000	-1.000000	-1.000000	375019.000000	1772914686.670379
4434.885000	90748.485000	-11195.730000	-24882.570000	0.000000	0.000000	0.000000	0.000000	27.635660	25.606124	18.780332	19.125890	0.000000	0.000000	-0.000000	-0.000000	-3.418240	-0.549360	-0.427280	-0.114868	0.834043	0.555480	-1.000000	-1.000000	-1.000000	-1.000000	-1.000000	-1.000000	-1.000000	12.413793	0.000000	-1.000000	-1.000000	375020.000000	1772914686.673641
4464.900000	90729.405000	-11154.060000	-24844.725000	0.000000	0.000000	0.000000	0.000000	22.691789	10.993851	20.468249	18.559898	0.000000	0.000000	-0.000000	-0.000000	-3.418240	-0.549360	-0.427280	-0.114868	0.834043	0.555480	-1.000000	-1.000000	-1.000000	-1.000000	-1.000000	-1.000000	-1.000000	12.413793	0.000000	-1.000000	-1.000000	375021.000000	1772914686.673645
4495.005000	90717.660000	-11116.845000	-24798.420000	0.000000	0.000000	0.000000	0.000000	9.836345	-9.733827	15.533717	12.431140	0.000000	0.000000	-0.000000	-0.000000	-3.418240	-0.549360	-0.427280	-0.114868	0.834043	0.555480	-1.000000	-1.000000	-1.000000	-1.000000	-1.000000	-1.000000	-1.000000	12.413793	0.000000	-1.000000	-1.000000	375022.000000	1772914686.677711
4473.585000	90720.360000	-11142.810000	-24810.840000	0.000000	0.000000	0.000000	0.000000	-2.624194	-25.108959	7.806716	5.723141	0.000000	0.000000	-0.000000	-0.000000	-3.418240	-0.549360	-0.427280	-0.114868	0.834043	0.555480	-1.000000	-1.000000	-1.000000	-1.000000	-1.000000	-1.000000	-1.000000	12.413793	0.000000	-1.000000	-1.000000	375023.000000	1772914686.677714
4410.000000	90733.275000	-11225.700000	-24902.280000	0.000000	0.000000	0.000000	0.000000	-12.776404	-27.064142	-3.897262	-3.023698	0.000000	0.000000	-0.000000	-0.000000	1.449700	-1.373400	-0.381500	-0.116577	0.824095	0.558470	-1.000000	-1.000000	-1.000000	-1.000000	-1.000000	-1.000000	-1.000000	12.413793	0.000000	-1.000000	-1.000000	375024.000000	1772914686.681794
4357.485000	90756.045000	-11288.745000	-24966.765000	0.000000	0.000000	0.000000	0.000000	-23.685621	-15.046393	-22.455661	-19.112258	0.000000	0.000000	-0.000000	-0.000000	1.449700	-1.373400	-0.381500	-0.116577	0.824095	0.558470	-1.000000	-1.000000	-1.000000	-1.000000	-1.000000	-1.000000	-1.000000	12.413793	0.000000	-1.000000	-1.000000	375025.000000	1772914686.681797
4387.005000	90784.845000	-11263.905000	-24947.190000	0.000000	0.000000	0.000000	0.000000	-32.951853	4.526018	-41.275882	-38.299511	0.000000	0.000000	-0.000000	-0.000000	1.449700	-1.373400	-0.381500	-0.116577	0.824095	0.558470	-1.000000	-1.000000	-1.000000	-1.000000	-1.000000	-1.000000	-1.000000	12.413793	0.000000	-1.000000	-1.000000	375026.000000	1772914686.685744
4415.895000	90793.035000	-11233.080000	-24915.060000	0.000000	0.000000	0.000000	0.000000	-30.247655	21.997013	-44.085648	-43.999390	0.000000	0.000000	-0.000000	-0.000000	1.449700	-1.373400	-0.381500	-0.116577	0.824095	0.558470	-1.000000	-1.000000	-1.000000	-1.000000	-1.000000	-1.000000	-1.000000	12.413793	0.000000	-1.000000	-1.000000	375027.000000	1772914686.685746
4412.475000	90773.730000	-11231.730000	-24915.960000	0.000000	0.000000	0.000000	0.000000	-10.183080	28.456005	-21.996258	-24.988499	0.000000	0.000000	-0.000000	-0.000000	1.449700	-1.373400	-0.381500	-0.116577	0.824095	0.558470	-1.000000	-1.000000	-1.000000	-1.000000	-1.000000	-1.000000	-1.000000	12.413793	0.000000	-1.000000	-1.000000	375028.000000	1772914686.691196
4397.985000	90745.605000	-11244.915000	-24951.465000	0.000000	0.000000	0.000000	0.000000	17.395222	19.663791	13.882653	9.276998	0.000000	0.000000	-0.000000	-0.000000	1.449700	-1.373400	-0.381500	-0.116577	0.824095	0.558470	-1.000000	-1.000000	-1.000000	-1.000000	-1.000000	-1.000000	-1.000000	12.413793	0.000000	-1.000000	-1.000000	375029.000000	1772914686.691200
4361.310000	90719.235000	-11278.260000	-24981.615000	0.000000	0.000000	0.000000	0.000000	35.161851	-0.670679	41.439176	36.570228	0.000000	0.000000	-0.000000	-0.000000	1.449700	-1.373400	-0.381500	-0.116577	0.824095	0.558470	-1.000000	-1.000000	-1.000000	-1.000000	-1.000000	-1.000000	-1.000000	12.413793	0.000000	-1.000000	-1.000000	375030.000000	1772914686.694150
4360.905000	90713.295000	-11281.680000	-24967.530000	0.000000	0.000000	0.000000	0.000000	33.604650	-21.754959	46.158661	42.681747	0.000000	0.000000	-0.000000	-0.000000	1.449700	-1.373400	-0.381500	-0.116577	0.824095	0.558470	-1.000000	-1.000000	-1.000000	-1.000000	-1.000000	-1.000000	-1.000000	12.413793	0.000000	-1.000000	-1.000000	375031.000000	1772914686.694152
4414.995000	90731.070000	-11225.565000	-24912.540000	0.000000	0.000000	0.000000	0.000000	18.581096	-31.518850	31.459554	32.057897	0.000000	0.000000	-0.000000	-0.000000	1.449700	-1.373400	-0.381500	-0.116577	0.824095	0.558470	-1.000000	-1.000000	-1.000000	-1.000000	-1.000000	-1.000000	-1.000000	12.413793	0.000000	-1.000000	-1.000000	375032.000000	1772914686.697676
4464.045000	90760.635000	-11181.510000	-24865.920000	0.000000	0.000000	0.000000	0.000000	5.183214	-23.751508	13.273551	19.283044	0.000000	0.000000	-0.000000	-0.000000	1.449700	-1.373400	-0.381500	-0.116577	0.824095	0.558470	-1.000000	-1.000000	-1.000000	-1.000000	-1.000000	-1.000000	-1.000000	12.413793	0.000000	-1.000000	-1.000000	375033.000000	1772914686.697678
4510.080000	90788.175000	-11134.530000	-24812.415000	0.000000	0.000000	0.000000	0.000000	2.951718	-2.164966	4.066265	13.444034	0.000000	0.000000	-0.000000	-0.000000	3.280900	7.446880	-6.470240	-0.105591	0.811277	0.554991	-1.000000	-1.000000	-1.000000	-1.000000	-1.000000	-1.000000	-1.000000	12.413793	0.000000	-1.000000	-1.000000	375034.000000	1772914686.701854
4447.485000	90798.300000	-11188.755000	-24862.230000	0.000000	0.000000	0.000000	0.000000	6.777459	21.411877	2.114426	10.969358	0.000000	0.000000	-0.000000	-0.000000	3.280900	7.446880	-6.470240	-0.105591	0.811277	0.554991	-1.000000	-1.000000	-1.000000	-1.000000	-1.000000	-1.000000	-1.000000	12.413793	0.000000	-1.000000	-1.000000	375035.000000	1772914686.701857
4342.905000	90786.240000	-11291.130000	-24966.630000	0.000000	0.000000	0.000000	0.000000	1.584867	33.760674	-5.263177	-0.232905	0.000000	0.000000	-0.000000	-0.000000	3.280900	7.446880	-6.470240	-0.105591	0.811277	0.554991	-1.000000	-1.000000	-1.000000	-1.000000	-1.000000	-1.000000	-1.000000	12.413793	0.000000	-1.000000	-1.000000	375036.000000	1772914686.705743
4314.420000	90761.940000	-11307.105000	-24976.080000	0.000000	0.000000	0.000000	0.000000	-20.425049	27.831119	-25.649974	-25.943744	0.000000	0.000000	-0.000000	-0.000000	3.280900	7.446880	-6.470240	-0.105591	0.811277	0.554991	-1.000000	-1.000000	-1.000000	-1.000000	-1.000000	-1.000000	-1.000000	12.413793	0.000000	-1.000000	-1.000000	375037.000000	1772914686.705746
4350.195000	90739.260000	-11259.090000	-24919.020000	0.000000	0.000000	0.000000	0.000000	-45.589614	6.819915	-46.939383	-51.719397	0.000000	0.000000	-0.000000	-0.000000	3.280900	7.446880	-6.470240	-0.105591	0.811277	0.554991	-1.000000	-1.000000	-1.000000	-1.000000	-1.000000	-1.000000	-1.000000	12.413793	0.000000	-1.000000	-1.000000	375038.000000	1772914686.709628
4433.355000	90733.455000	-11178.900000	-24847.020000	0.000000	0.000000	0.000000	0.000000	-48.689978	-17.613347	-46.228830	-52.990344	0.000000	0.000000	-0.000000	-0.000000	3.280900	7.446880	-6.470240	-0.105591	0.811277	0.554991	-1.000000	-1.000000	-1.000000	-1.000000	-1.000000	-1.000000	-1.000000	12.413793	0.000000	-1.000000	-1.000000	375039.000000	1772914686.709631
4477.275000	90746.910000	-11136.105000	-24803.685000	0.000000	0.000000	0.000000	0.000000	-18.846352	-31.997389	-15.112617	-21.690500	0.000000	0.000000	-0.000000	-0.000000	3.280900	7.446880	-6.470240	-0.105591	0.811277	0.554991	-1.000000	-1.000000	-1.000000	-1.000000	-1.000000	-1.000000	-1.000000	12.413793	0.000000	-1.000000	-1.000000	375040.000000	1772914686.713643
4502.745000	90774.315000	-11126.970000	-24789.870000	0.000000	0.000000	0.000000	0.000000	27.820144	-28.659602	29.013565	23.657027	0.000000	0.000000	-0.000000	-0.000000	3.280900	7.446880	-6.470240	-0.105591	0.811277	0.554991	-1.000000	-1.000000	-1.000000	-1.000000	-1.000000	-1.000000	-1.000000	12.413793	0.000000	-1.000000	-1.000000	375041.000000	1772914686.713647
4462.380000	90798.030000	-11202.885000	-24880.005000	0.000000	0.000000	0.000000	0.000000	60.610633	-9.946877	56.006461	52.358211	0.000000	0.000000	-0.000000	-0.000000	3.280900	7.446880	-6.470240	-0.105591	0.811277	0.554991	-1.000000	-1.000000	-1.000000	-1.000000	-1.000000	-1.000000	-1.000000	12.413793	0.000000	-1.000000	-1.000000	375042.000000	1772914686.717763
4472.730000	90817.110000	-11201.940000	-24884.955000	0.000000	0.000000	0.000000	0.000000	58.566175	13.434360	47.141885	44.997652	0.000000	0.000000	-0.000000	-0.000000	3.280900	7.446880	-6.470240	-0.105591	0.811277	0.554991	-1.000000	-1.000000	-1.000000	-1.000000	-1.000000	-1.000000	-1.000000	12.413793	0.000000	-1.000000	-1.000000	375043.000000	1772914686.717766
4476.600000	90811.620000	-11192.535000	-24878.565000	0.000000	0.000000	0.000000	0.000000	25.855840	28.754360	11.013695	9.700389	0.000000	0.000000	-0.000000	-0.000000	5.478340	14.207060	-5.402040	-0.104126	0.805296	0.553893	-1.000000	-1.000000	-1.000000	-1.000000	-1.000000	-1.000000	-1.000000	12.413793	0.000000	-1.000000	-1.000000	375044.000000	1772914686.721727
4413.060000	90782.550000	-11247.840000	-24950.025000	0.000000	0.000000	0.000000	0.000000	-15.951733	27.852234	-26.425668	-27.143423	0.000000	0.000000	-0.000000	-0.000000	5.478340	14.207060	-5.402040	-0.104126	0.805296	0.553893	-1.000000	-1.000000	-1.000000	-1.000000	-1.000000	-1.000000	-1.000000	12.413793	0.000000	-1.000000	-1.000000	375045.000000	1772914686.721730
4400.145000	90751.860000	-11242.080000	-24972.930000	0.000000	0.000000	0.000000	0.000000	-47.289448	10.988915	-45.782764	-46.194632	0.000000	0.000000	-0.000000	-0.000000	5.478340	14.207060	-5.402040	-0.104126	0.805296	0.553893	-1.000000	-1.000000	-1.000000	-1.000000	-1.000000	-1.000000	-1.000000	12.413793	0.000000	-1.000000	-1.000000	375046.000000	1772914686.725578
4455.090000	90736.155000	-11150.280000	-24905.970000	0.000000	0.000000	0.000000	0.000000	-56.709270	-12.807518	-40.602271	-41.874370	0.000000	0.000000	-0.000000	-0.000000	5.478340	14.207060	-5.402040	-0.104126	0.805296	0.553893	-1.000000	-1.000000	-1.000000	-1.000000	-1.000000	-1.000000	-1.000000	12.413793	0.000000	-1.000000	-1.000000	375047.000000	1772914686.725582
4423.230000	90734.175000	-11176.695000	-24934.140000	0.000000	0.000000	0.000000	0.000000	-40.751980	-30.215370	-13.967681	-16.660591	0.000000	0.000000	-0.000000	-0.000000	5.478340	14.207060	-5.402040	-0.104126	0.805296	0.553893	-1.000000	-1.000000	-1.000000	-1.000000	-1.000000	-1.000000	-1.000000	12.413793	0.000000	-1.000000	-1.000000	375048.000000	1772914686.729601
4310.955000	90747.630000	-11306.070000	-25050.195000	0.000000	0.000000	0.000000	0.000000	-11.314080	-31.484950	16.126964	14.507831	0.000000	0.000000	-0.000000	-0.000000	5.478340	14.207060	-5.402040	-0.104126	0.805296	0.553893	-1.000000	-1.000000	-1.000000	-1.000000	-1.000000	-1.000000	-1.000000	12.413793	0.000000	-1.000000	-1.000000	375049.000000	1772914686.729605
4337.730000	90778.770000	-11284.290000	-25009.920000	0.000000	0.000000	0.000000	0.000000	11.041746	-15.866610	26.473859	30.914701	0.000000	0.000000	-0.000000	-0.000000	5.478340	14.207060	-5.402040	-0.104126	0.805296	0.553893	-1.000000	-1.000000	-1.000000	-1.000000	-1.000000	-1.000000	-1.000000	12.413793	0.000000	-1.000000	-1.000000	375050.000000	1772914686.733880
4384.755000	90807.210000	-11230.875000	-24944.310000	0.000000	0.000000	0.000000	0.000000	20.237473	8.809196	15.940153	29.683509	0.000000	0.000000	-0.000000	-0.000000	5.478340	14.207060	-5.402040	-0.104126	0.805296	0.553893	-1.000000	-1.000000	-1.000000	-1.000000	-1.000000	-1.000000	-1.000000	12.413793	0.000000	-1.000000	-1.000000	375051.000000	1772914686.733884
4454.685000	90816.615000	-11169.945000	-24866.910000	0.000000	0.000000	0.000000	0.000000	26.891755	30.330435	5.426808	26.255387	0.000000	0.000000	-0.000000	-0.000000	5.478340	14.207060	-5.402040	-0.104126	0.805296	0.553893	-1.000000	-1.000000	-1.000000	-1.000000	-1.000000	-1.000000	-1.000000	12.413793	0.000000	-1.000000	-1.000000	375052.000000	1772914686.737699
4554.945000	90806.355000	-11051.460000	-24745.455000	0.000000	0.000000	0.000000	0.000000	38.905367	37.688552	10.834426	31.533727	0.000000	0.000000	-0.000000	-0.000000	5.478340	14.207060	-5.402040	-0.104126	0.805296	0.553893	-1.000000	-1.000000	-1.000000	-1.000000	-1.000000	-1.000000	-1.000000	12.413793	0.000000	-1.000000	-1.000000	375053.000000	1772914686.737702
4484.475000	90773.730000	-11097.495000	-24804.225000	0.000000	0.000000	0.000000	0.000000	49.450893	26.484717	27.319015	39.187748	0.000000	0.000000	-0.000000	-0.000000	2.563680	14.832720	-7.080640	-0.114380	0.806089	0.553465	-1.000000	-1.000000	-1.000000	-1.000000	-1.000000	-1.000000	-1.000000	12.413793	0.000000	-1.000000	-1.000000	375054.000000	1772914686.741671
4431.240000	90745.875000	-11163.735000	-24900.795000	0.000000	0.000000	0.000000	0.000000	40.951798	1.547954	33.208740	29.679342	0.000000	0.000000	-0.000000	-0.000000	2.563680	14.832720	-7.080640	-0.114380	0.806089	0.553465	-1.000000	-1.000000	-1.000000	-1.000000	-1.000000	-1.000000	-1.000000	12.413793	0.000000	-1.000000	-1.000000	375055.000000	1772914686.741674
4414.230000	90738.810000	-11203.155000	-24916.365000	0.000000	0.000000	0.000000	0.000000	5.469053	-24.774971	11.435990	-8.225115	0.000000	0.000000	-0.000000	-0.000000	2.563680	14.832720	-7.080640	-0.114380	0.806089	0.553465	-1.000000	-1.000000	-1.000000	-1.000000	-1.000000	-1.000000	-1.000000	12.413793	0.000000	-1.000000	-1.000000	375056.000000	1772914686.745655
4415.310000	90754.470000	-11232.720000	-24917.040000	0.000000	0.000000	0.000000	0.000000	-40.077104	-38.553316	-29.582618	-57.171276	0.000000	0.000000	-0.000000	-0.000000	2.563680	14.832720	-7.080640	-0.114380	0.806089	0.553465	-1.000000	-1.000000	-1.000000	-1.000000	-1.000000	-1.000000	-1.000000	12.413793	0.000000	-1.000000	-1.000000	375057.000000	1772914686.745658
4423.680000	90784.530000	-11225.295000	-24912.720000	0.000000	0.000000	0.000000	0.000000	-67.769245	-32.157517	-62.710167	-84.571675	0.000000	0.000000	-0.000000	-0.000000	2.563680	14.832720	-7.080640	-0.114380	0.806089	0.553465	-1.000000	-1.000000	-1.000000	-1.000000	-1.000000	-1.000000	-1.000000	12.413793	0.000000	-1.000000	-1.000000	375058.000000	1772914686.749784
4429.260000	90810.900000	-11228.490000	-24925.365000	0.000000	0.000000	0.000000	0.000000	-62.775219	-9.069022	-66.002472	-73.304514	0.000000	0.000000	-0.000000	-0.000000	2.563680	14.832720	-7.080640	-0.114380	0.806089	0.553465	-1.000000	-1.000000	-1.000000	-1.000000	-1.000000	-1.000000	-1.000000	12.413793	0.000000	-1.000000	-1.000000	375059.000000	1772914686.749787
4500.585000	90823.185000	-11164.455000	-24862.590000	0.000000	0.000000	0.000000	0.000000	-30.315539	17.969274	-36.969157	-31.430342	0.000000	0.000000	-0.000000	-0.000000	2.563680	14.832720	-7.080640	-0.114380	0.806089	0.553465	-1.000000	-1.000000	-1.000000	-1.000000	-1.000000	-1.000000	-1.000000	12.413793	0.000000	-1.000000	-1.000000	375060.000000	1772914686.753637
4492.350000	90813.420000	-11146.860000	-24820.740000	0.000000	0.000000	0.000000	0.000000	12.234178	34.298016	9.584202	20.440047	0.000000	0.000000	-0.000000	-0.000000	2.563680	14.832720	-7.080640	-0.114380	0.806089	0.553465	-1.000000	-1.000000	-1.000000	-1.000000	-1.000000	-1.000000	-1.000000	12.413793	0.000000	-1.000000	-1.000000	375061.000000	1772914686.753640
4482.180000	90785.205000	-11118.555000	-24808.725000	0.000000	0.000000	0.000000	0.000000	43.849152	31.449094	51.079561	61.112710	0.000000	0.000000	-0.000000	-0.000000	2.563680	14.832720	-7.080640	-0.114380	0.806089	0.553465	-1.000000	-1.000000	-1.000000	-1.000000	-1.000000	-1.000000	-1.000000	12.413793	0.000000	-1.000000	-1.000000	375062.000000	1772914686.757593
4532.130000	90762.660000	-11000.790000	-24741.765000	0.000000	0.000000	0.000000	0.000000	50.780910	11.561445	70.544413	75.717218	0.000000	0.000000	-0.000000	-0.000000	2.563680	14.832720	-7.080640	-0.114380	0.806089	0.553465	-1.000000	-1.000000	-1.000000	-1.000000	-1.000000	-1.000000	-1.000000	12.413793	0.000000	-1.000000	-1.000000	375063.000000	1772914686.757595
4517.370000	90748.890000	-10979.685000	-24723.990000	0.000000	0.000000	0.000000	0.000000	35.600321	-13.934029	65.741579	62.503387	0.000000	0.000000	-0.000000	-0.000000	0.824040	19.776960	-7.874160	-0.120849	0.831968	0.550963	-1.000000	-1.000000	-1.000000	-1.000000	-1.000000	-1.000000	-1.000000	12.413793	0.000000	-1.000000	-1.000000	375064.000000	1772914686.761666
4484.205000	90754.470000	-11051.100000	-24842.835000	0.000000	0.000000	0.000000	0.000000	9.813262	-30.945473	40.638798	28.521334	0.000000	0.000000	-0.000000	-0.000000	0.824040	19.776960	-7.874160	-0.120849	0.831968	0.550963	-1.000000	-1.000000	-1.000000	-1.000000	-1.000000	-1.000000	-1.000000	12.413793	0.000000	-1.000000	-1.000000	375065.000000	1772914686.761669
4411.170000	90775.845000	-11174.130000	-24932.070000	0.000000	0.000000	0.000000	0.000000	-17.634507	-30.652431	-3.291246	-18.978190	0.000000	0.000000	-0.000000	-0.000000	0.824040	19.776960	-7.874160	-0.120849	0.831968	0.550963	-1.000000	-1.000000	-1.000000	-1.000000	-1.000000	-1.000000	-1.000000	12.413793	0.000000	-1.000000	-1.000000	375066.000000	1772914686.765737
4396.320000	90806.535000	-11236.365000	-24921.720000	0.000000	0.000000	0.000000	0.000000	-39.905388	-13.760746	-57.533098	-65.736709	0.000000	0.000000	-0.000000	-0.000000	0.824040	19.776960	-7.874160	-0.120849	0.831968	0.550963	-1.000000	-1.000000	-1.000000	-1.000000	-1.000000	-1.000000	-1.000000	12.413793	0.000000	-1.000000	-1.000000	375067.000000	1772914686.765740
4340.340000	90819.315000	-11401.470000	-25000.065000	0.000000	0.000000	0.000000	0.000000	-49.196679	10.352352	-100.915823	-88.537880	0.000000	0.000000	-0.000000	-0.000000	0.824040	19.776960	-7.874160	-0.120849	0.831968	0.550963	-1.000000	-1.000000	-1.000000	-1.000000	-1.000000	-1.000000	-1.000000	12.413793	0.000000	-1.000000	-1.000000	375068.000000	1772914686.769737
4368.375000	90819.045000	-11364.390000	-24939.495000	0.000000	0.000000	0.000000	0.000000	-40.157333	28.567863	-111.200341	-73.300700	0.000000	0.000000	-0.000000	-0.000000	0.824040	19.776960	-7.874160	-0.120849	0.831968	0.550963	-1.000000	-1.000000	-1.000000	-1.000000	-1.000000	-1.000000	-1.000000	12.413793	0.000000	-1.000000	-1.000000	375069.000000	1772914686.769741
4464.405000	90802.935000	-11219.580000	-24914.970000	0.000000	0.000000	0.000000	0.000000	-12.366064	31.183340	-74.061003	-25.374825	0.000000	0.000000	-0.000000	-0.000000	0.824040	19.776960	-7.874160	-0.120849	0.831968	0.550963	-1.000000	-1.000000	-1.000000	-1.000000	-1.000000	-1.000000	-1.000000	12.413793	0.000000	-1.000000	-1.000000	375070.000000	1772914686.773643
4492.980000	90773.730000	-11232.945000	-25004.700000	0.000000	0.000000	0.000000	0.000000	27.875704	17.157885	5.888247	32.710552	0.000000	0.000000	-0.000000	-0.000000	0.824040	19.776960	-7.874160	-0.120849	0.831968	0.550963	-1.000000	-1.000000	-1.000000	-1.000000	-1.000000	-1.000000	-1.000000	12.413793	0.000000	-1.000000	-1.000000	375071.000000	1772914686.773646
4479.570000	90750.465000	-11276.145000	-25007.625000	0.000000	0.000000	0.000000	0.000000	62.782670	-5.921012	91.269638	70.427766	0.000000	0.000000	-0.000000	-0.000000	0.824040	19.776960	-7.874160	-0.120849	0.831968	0.550963	-1.000000	-1.000000	-1.000000	-1.000000	-1.000000	-1.000000	-1.000000	12.413793	0.000000	-1.000000	-1.000000	375072.000000	1772914686.777673
4556.250000	90755.325000	-11202.660000	-24893.280000	0.000000	0.000000	0.000000	0.000000	72.230477	-25.839675	134.508231	74.150560	0.000000	0.000000	-0.000000	-0.000000	0.824040	19.776960	-7.874160	-0.120849	0.831968	0.550963	-1.000000	-1.000000	-1.000000	-1.000000	-1.000000	-1.000000	-1.000000	12.413793	0.000000	-1.000000	-1.000000	375073.000000	1772914686.777676
4585.725000	90779.850000	-11114.190000	-24793.065000	0.000000	0.000000	0.000000	0.000000	52.870088	-31.571819	120.995886	58.564900	0.000000	0.000000	-0.000000	-0.000000	-24.873800	11.521300	0.930860	-0.116150	0.883543	0.551268	-1.000000	-1.000000	-1.000000	-1.000000	-1.000000	-1.000000	-1.000000	12.413793	0.000000	-1.000000	-1.000000	375074.000000	1772914686.781944
4588.740000	90814.815000	-11089.485000	-24688.305000	0.000000	0.000000	0.000000	0.000000	17.422049	-19.416597	71.793870	43.788135	0.000000	0.000000	-0.000000	-0.000000	-24.873800	11.521300	0.930860	-0.116150	0.883543	0.551268	-1.000000	-1.000000	-1.000000	-1.000000	-1.000000	-1.000000	-1.000000	12.413793	0.000000	-1.000000	-1.000000	375075.000000	1772914686.781947
4573.575000	90843.885000	-11154.510000	-24675.795000	0.000000	0.000000	0.000000	0.000000	-20.158308	4.244567	12.034068	32.646332	0.000000	0.000000	-0.000000	-0.000000	-24.873800	11.521300	0.930860	-0.116150	0.883543	0.551268	-1.000000	-1.000000	-1.000000	-1.000000	-1.000000	-1.000000	-1.000000	12.413793	0.000000	-1.000000	-1.000000	375076.000000	1772914686.785779
4644.360000	90855.180000	-11059.470000	-24629.760000	0.000000	0.000000	0.000000	0.000000	-48.535118	26.333267	-42.655527	14.514981	0.000000	0.000000	-0.000000	-0.000000	-24.873800	11.521300	0.930860	-0.116150	0.883543	0.551268	-1.000000	-1.000000	-1.000000	-1.000000	-1.000000	-1.000000	-1.000000	12.413793	0.000000	-1.000000	-1.000000	375077.000000	1772914686.785782
4661.730000	90835.920000	-11053.440000	-24753.015000	0.000000	0.000000	0.000000	0.000000	-57.621182	34.341380	-77.565604	-18.553477	0.000000	0.000000	-0.000000	-0.000000	-24.873800	11.521300	0.930860	-0.116150	0.883543	0.551268	-1.000000	-1.000000	-1.000000	-1.000000	-1.000000	-1.000000	-1.000000	12.413793	0.000000	-1.000000	-1.000000	375078.000000	1772914686.796636
4608.405000	90802.170000	-11192.940000	-24808.005000	0.000000	0.000000	0.000000	0.000000	-46.766776	23.060537	-85.615004	-63.266901	0.000000	0.000000	-0.000000	-0.000000	-24.873800	11.521300	0.930860	-0.116150	0.883543	0.551268	-1.000000	-1.000000	-1.000000	-1.000000	-1.000000	-1.000000	-1.000000	12.413793	0.000000	-1.000000	-1.000000	375079.000000	1772914686.796638
4546.755000	90765.045000	-11425.995000	-24988.995000	0.000000	0.000000	0.000000	0.000000	-29.091771	-2.380650	-80.507579	-105.260400	0.000000	0.000000	-0.000000	-0.000000	-24.873800	11.521300	0.930860	-0.116150	0.883543	0.551268	-1.000000	-1.000000	-1.000000	-1.000000	-1.000000	-1.000000	-1.000000	12.413793	0.000000	-1.000000	-1.000000	375080.000000	1772914686.796642
4553.550000	90759.330000	-11324.115000	-24935.715000	0.000000	0.000000	0.000000	0.000000	-17.119417	-28.623654	-75.638668	-123.416405	0.000000	0.000000	-0.000000	-0.000000	-24.873800	11.521300	0.930860	-0.116150	0.883543	0.551268	-1.000000	-1.000000	-1.000000	-1.000000	-1.000000	-1.000000	-1.000000	12.413793	0.000000	-1.000000	-1.000000	375081.000000	1772914686.796645
4525.290000	90776.070000	-11252.655000	-24858.855000	0.000000	0.000000	0.000000	0.000000	-9.910596	-40.807425	-56.546634	-97.036794	-0.000000	0.000000	-0.000000	-0.000000	-24.873800	11.521300	0.930860	-0.116150	0.883543	0.551268	-1.000000	-1.000000	-1.000000	-1.000000	-1.000000	-1.000000	-1.000000	12.413793	0.000000	-1.000000	-1.000000	375082.000000	1772914686.799838
4458.285000	90805.770000	-11233.890000	-24828.075000	0.000000	0.000000	0.000000	0.000000	-1.444017	-31.233962	-4.594348	-23.200910	-0.000000	0.000000	-0.000000	-0.000000	-24.873800	11.521300	0.930860	-0.116150	0.883543	0.551268	-1.000000	-1.000000	-1.000000	-1.000000	-1.000000	-1.000000	-1.000000	12.413793	0.000000	-1.000000	-1.000000	375083.000000	1772914686.799841
4566.420000	90844.740000	-11028.015000	-24710.445000	0.000000	0.000000	0.000000	0.000000	10.560591	-4.384637	68.124679	69.791521	-0.000000	0.000000	-0.000000	-0.000000	-13.550880	14.420700	-0.488320	-0.104126	0.902952	0.583556	-1.000000	-1.000000	-1.000000	-1.000000	-1.000000	-1.000000	-1.000000	12.413793	0.000000	-1.000000	-1.000000	375084.000000	1772914686.801771
4716.945000	90863.640000	-10893.555000	-24640.110000	0.000000	0.000000	0.000000	0.000000	30.252502	25.755380	130.797369	139.939080	-0.000000	0.000000	-0.000000	-0.000000	-13.550880	14.420700	-0.488320	-0.104126	0.902952	0.583556	-1.000000	-1.000000	-1.000000	-1.000000	-1.000000	-1.000000	-1.000000	12.413793	0.000000	-1.000000	-1.000000	375085.000000	1772914686.801775
4597.965000	90839.160000	-11158.515000	-24787.215000	0.000000	0.000000	0.000000	0.000000	55.560971	43.067911	149.942920	154.804582	-0.000000	0.000000	-0.000000	-0.000000	-13.550880	14.420700	-0.488320	-0.104126	0.902952	0.583556	-1.000000	-1.000000	-1.000000	-1.000000	-1.000000	-1.000000	-1.000000	12.413793	0.000000	-1.000000	-1.000000	375086.000000	1772914686.808239
4547.340000	90808.155000	-11286.810000	-24794.460000	0.000000	0.000000	0.000000	0.000000	64.275250	37.492133	96.536234	103.050082	-0.000000	0.000000	-0.000000	-0.000000	-13.550880	14.420700	-0.488320	-0.104126	0.902952	0.583556	-1.000000	-1.000000	-1.000000	-1.000000	-1.000000	-1.000000	-1.000000	12.413793	0.000000	-1.000000	-1.000000	375087.000000	1772914686.808242
4386.105000	90758.520000	-11766.465000	-25037.010000	0.000000	0.000000	0.000000	0.000000	35.004358	11.232314	-25.611160	4.494118	-0.000000	0.000000	-0.000000	-0.000000	-13.550880	14.420700	-0.488320	-0.104126	0.902952	0.583556	-1.000000	-1.000000	-1.000000	-1.000000	-1.000000	-1.000000	-1.000000	12.413793	0.000000	-1.000000	-1.000000	375088.000000	1772914686.811337
4373.910000	90740.160000	-11781.630000	-25088.085000	0.000000	0.000000	0.000000	0.000000	-23.109469	-21.784705	-163.914339	-97.533321	-0.000000	0.000000	-0.000000	-0.000000	-13.550880	14.420700	-0.488320	-0.104126	0.902952	0.583556	-1.000000	-1.000000	-1.000000	-1.000000	-1.000000	-1.000000	-1.000000	12.413793	0.000000	-1.000000	-1.000000	375089.000000	1772914686.811339
4594.860000	90762.255000	-11444.265000	-24931.620000	0.000000	0.000000	0.000000	0.000000	-69.523364	-43.161521	-230.804964	-153.063567	-0.000000	0.000000	-0.000000	-0.000000	-13.550880	14.420700	-0.488320	-0.104126	0.902952	0.583556	-1.000000	-1.000000	-1.000000	-1.000000	-1.000000	-1.000000	-1.000000	12.413793	0.000000	-1.000000	-1.000000	375090.000000	1772914686.813634
4705.470000	90804.105000	-11092.320000	-24785.730000	0.000000	0.000000	0.000000	0.000000	-61.954503	-39.972479	-154.399670	-125.157790	-0.000000	0.000000	-0.000000	-0.000000	-13.550880	14.420700	-0.488320	-0.104126	0.902952	0.583556	-1.000000	-1.000000	-1.000000	-1.000000	-1.000000	-1.000000	-1.000000	12.413793	0.000000	-1.000000	-1.000000	375091.000000	1772914686.813637
4620.150000	90828.630000	-11244.735000	-24764.040000	0.000000	0.000000	0.000000	0.000000	-3.073908	-13.442464	38.594445	-24.245931	-0.000000	0.000000	-0.000000	-0.000000	-13.550880	14.420700	-0.488320	-0.104126	0.902952	0.583556	-1.000000	-1.000000	-1.000000	-1.000000	-1.000000	-1.000000	-1.000000	12.413793	0.000000	-1.000000	-1.000000	375092.000000	1772914686.818950
4776.975000	90857.520000	-11192.715000	-24518.745000	0.000000	0.000000	0.000000	0.000000	57.606112	20.902296	217.875206	90.729092	-0.000000	0.000000	-0.000000	-0.000000	-13.550880	14.420700	-0.488320	-0.104126	0.902952	0.583556	-1.000000	-1.000000	-1.000000	-1.000000	-1.000000	-1.000000	-1.000000	12.413793	0.000000	-1.000000	-1.000000	375093.000000	1772914686.818953
4798.575000	90855.900000	-11155.545000	-24633.360000	0.000000	0.000000	0.000000	0.000000	79.282187	43.684060	267.425329	157.576001	-0.000000	0.000000	-0.000000	-0.000000	-3.815000	3.662400	-4.715340	-0.107910	0.895750	0.581541	-1.000000	-1.000000	-1.000000	-1.000000	-1.000000	-1.000000	-1.000000	12.413793	0.000000	-1.000000	-1.000000	375094.000000	1772914686.821689
4766.850000	90821.880000	-11455.470000	-24830.190000	0.000000	0.000000	0.000000	0.000000	57.105723	42.971685	173.028357	139.419983	-0.000000	0.000000	-0.000000	-0.000000	-3.815000	3.662400	-4.715340	-0.107910	0.895750	0.581541	-1.000000	-1.000000	-1.000000	-1.000000	-1.000000	-1.000000	-1.000000	12.413793	0.000000	-1.000000	-1.000000	375095.000000	1772914686.821692
4631.220000	90780.165000	-11671.470000	-25024.545000	0.000000	0.000000	0.000000	0.000000	3.560823	19.173732	-5.768881	36.572399	-0.000000	0.000000	-0.000000	-0.000000	-3.815000	3.662400	-4.715340	-0.107910	0.895750	0.581541	-1.000000	-1.000000	-1.000000	-1.000000	-1.000000	-1.000000	-1.000000	12.413793	0.000000	-1.000000	-1.000000	375096.000000	1772914686.825742
4483.980000	90758.205000	-11538.180000	-25147.035000	0.000000	0.000000	0.000000	0.000000	-63.255219	-15.386927	-178.038989	-101.056212	-0.000000	0.000000	-0.000000	-0.000000	-3.815000	3.662400	-4.715340	-0.107910	0.895750	0.581541	-1.000000	-1.000000	-1.000000	-1.000000	-1.000000	-1.000000	-1.000000	12.413793	0.000000	-1.000000	-1.000000	375097.000000	1772914686.825745
4339.935000	90750.510000	-11621.700000	-25233.705000	0.000000	0.000000	0.000000	0.000000	-119.124948	-42.351404	-252.964063	-196.882737	-0.000000	0.000000	-0.000000	-0.000000	-3.815000	3.662400	-4.715340	-0.107910	0.895750	0.581541	-1.000000	-1.000000	-1.000000	-1.000000	-1.000000	-1.000000	-1.000000	12.413793	0.000000	-1.000000	-1.000000	375098.000000	1772914686.829788
4313.880000	90778.590000	-11409.345000	-25141.680000	0.000000	0.000000	0.000000	0.000000	-137.643905	-47.385687	-195.644615	-196.344695	-0.000000	0.000000	-0.000000	-0.000000	-3.815000	3.662400	-4.715340	-0.107910	0.895750	0.581541	-1.000000	-1.000000	-1.000000	-1.000000	-1.000000	-1.000000	-1.000000	12.413793	0.000000	-1.000000	-1.000000	375099.000000	1772914686.829791
4594.455000	90823.455000	-11300.895000	-24889.455000	0.000000	0.000000	0.000000	0.000000	-96.814536	-27.698025	-45.926539	-93.377410	-0.000000	0.000000	-0.000000	-0.000000	-3.815000	3.662400	-4.715340	-0.107910	0.895750	0.581541	-1.000000	-1.000000	-1.000000	-1.000000	-1.000000	-1.000000	-1.000000	12.413793	0.000000	-1.000000	-1.000000	375100.000000	1772914686.833860
4580.370000	90855.000000	-11212.290000	-24567.210000	0.000000	0.000000	0.000000	0.000000	3.613827	6.783959	115.801621	72.371981	-0.000000	0.000000	-0.000000	-0.000000	-3.815000	3.662400	-4.715340	-0.107910	0.895750	0.581541	-1.000000	-1.000000	-1.000000	-1.000000	-1.000000	-1.000000	-1.000000	12.413793	0.000000	-1.000000	-1.000000	375101.000000	1772914686.833863
4500.180000	90860.670000	-11134.665000	-24648.120000	0.000000	0.000000	0.000000	0.000000	117.405676	38.027617	211.999123	225.010973	-0.000000	0.000000	-0.000000	-0.000000	-3.815000	3.662400	-4.715340	-0.107910	0.895750	0.581541	-1.000000	-1.000000	-1.000000	-1.000000	-1.000000	-1.000000	-1.000000	12.413793	0.000000	-1.000000	-1.000000	375102.000000	1772914686.837731
4503.375000	90824.220000	-11710.890000	-25072.515000	0.000000	0.000000	0.000000	0.000000	174.982546	48.963502	195.585729	270.725492	-0.000000	0.000000	-0.000000	-0.000000	-3.815000	3.662400	-4.715340	-0.107910	0.895750	0.581541	-1.000000	-1.000000	-1.000000	-1.000000	-1.000000	-1.000000	-1.000000	12.413793	0.000000	-1.000000	-1.000000	375103.000000	1772914686.837733
4568.130000	90780.255000	-11840.445000	-25267.590000	0.000000	0.000000	0.000000	0.000000	148.489698	33.004798	63.816878	158.143934	-0.000000	0.000000	-0.000000	-0.000000	48.023220	0.289940	-0.473060	-0.119262	0.880430	0.621214	-1.000000	-1.000000	-1.000000	-1.000000	-1.000000	-1.000000	-1.000000	12.413793	0.000000	-1.000000	-1.000000	375104.000000	1772914686.841711
4566.645000	90753.930000	-11939.895000	-24986.790000	0.000000	0.000000	0.000000	0.000000	68.889618	-1.261503	-116.758503	-49.074818	-0.000000	0.000000	-0.000000	-0.000000	48.023220	0.289940	-0.473060	-0.119262	0.880430	0.621214	-1.000000	-1.000000	-1.000000	-1.000000	-1.000000	-1.000000	-1.000000	12.413793	0.000000	-1.000000	-1.000000	375105.000000	1772914686.841714
4559.535000	90752.445000	-11854.890000	-24985.800000	0.000000	0.000000	0.000000	0.000000	-15.406418	-34.210400	-231.308580	-204.798463	-0.000000	0.000000	-0.000000	-0.000000	48.023220	0.289940	-0.473060	-0.119262	0.880430	0.621214	-1.000000	-1.000000	-1.000000	-1.000000	-1.000000	-1.000000	-1.000000	12.413793	0.000000	-1.000000	-1.000000	375106.000000	1772914686.845693
4598.190000	90781.830000	-11383.290000	-24900.435000	0.000000	0.000000	0.000000	0.000000	-72.370430	-46.981975	-198.574935	-215.851507	-0.000000	0.000000	-0.000000	-0.000000	48.023220	0.289940	-0.473060	-0.119262	0.880430	0.621214	-1.000000	-1.000000	-1.000000	-1.000000	-1.000000	-1.000000	-1.000000	12.413793	0.000000	-1.000000	-1.000000	375107.000000	1772914686.845696
4531.275000	90816.030000	-11158.245000	-24805.035000	0.000000	0.000000	0.000000	0.000000	-92.019318	-32.877928	-25.886982	-107.548025	-0.000000	0.000000	-0.000000	-0.000000	48.023220	0.289940	-0.473060	-0.119262	0.880430	0.621214	-1.000000	-1.000000	-1.000000	-1.000000	-1.000000	-1.000000	-1.000000	12.413793	0.000000	-1.000000	-1.000000	375108.000000	1772914686.849788
4231.440000	90834.210000	-11202.075000	-25081.515000	0.000000	0.000000	0.000000	0.000000	-87.379762	-1.038271	184.525441	26.697984	-0.000000	0.000000	-0.000000	-0.000000	48.023220	0.289940	-0.473060	-0.119262	0.880430	0.621214	-1.000000	-1.000000	-1.000000	-1.000000	-1.000000	-1.000000	-1.000000	12.413793	0.000000	-1.000000	-1.000000	375109.000000	1772914686.849791
4209.255000	90845.640000	-11243.340000	-25126.965000	0.000000	0.000000	0.000000	0.000000	-81.051808	29.720288	293.326346	97.805115	-0.000000	0.000000	-0.000000	-0.000000	48.023220	0.289940	-0.473060	-0.119262	0.880430	0.621214	-1.000000	-1.000000	-1.000000	-1.000000	-1.000000	-1.000000	-1.000000	12.413793	0.000000	-1.000000	-1.000000	375110.000000	1772914686.853418
4526.280000	90846.675000	-11093.535000	-24928.155000	0.000000	0.000000	0.000000	0.000000	-66.882802	43.085621	235.032183	84.130142	-0.000000	0.000000	-0.000000	-0.000000	48.023220	0.289940	-0.473060	-0.119262	0.880430	0.621214	-1.000000	-1.000000	-1.000000	-1.000000	-1.000000	-1.000000	-1.000000	12.413793	0.000000	-1.000000	-1.000000	375111.000000	1772914686.853422
4727.385000	90822.060000	-10930.455000	-24785.640000	0.000000	0.000000	0.000000	0.000000	-11.053713	33.970939	66.876828	39.489488	-0.000000	0.000000	-0.000000	-0.000000	48.023220	0.289940	-0.473060	-0.119262	0.880430	0.621214	-1.000000	-1.000000	-1.000000	-1.000000	-1.000000	-1.000000	-1.000000	12.413793	0.000000	-1.000000	-1.000000	375112.000000	1772914686.857805
4531.860000	90771.615000	-11222.865000	-24871.590000	0.000000	0.000000	0.000000	0.000000	81.103295	8.206217	-105.137558	17.385159	-0.000000	0.000000	-0.000000	-0.000000	48.023220	0.289940	-0.473060	-0.119262	0.880430	0.621214	-1.000000	-1.000000	-1.000000	-1.000000	-1.000000	-1.000000	-1.000000	12.413793	0.000000	-1.000000	-1.000000	375113.000000	1772914686.857808
