Channel1	Channel2	Channel3	Channel4	Channel5	Channel6	Channel7	Channel8	FilteredChannel1	FilteredChannel2	FilteredChannel3	FilteredChannel4	FilteredChannel5	FilteredChannel6	FilteredChannel7	FilteredChannel8	GyroX	GyroY	GyroZ	AccX	AccY	AccZ	PPG1	PPG2	rawPPG1	rawPPG2	rawPPG3	Hr	Hrv	Battery	Trigger	PhysicalTrigger	AutoTrigger	NumMeasurements	Timestamp
4780.620000	91081.755000	-11273.985000	-24019.245000	0.000000	0.000000	0.000000	0.000000	8.080484	11.297659	5.833576	6.263462	-0.000000	0.000000	-0.000000	-0.000000	-2.075360	-0.854560	-0.824040	-0.114319	0.811033	0.586302	-1.000000	-1.000000	-1.000000	-1.000000	-1.000000	-1.000000	-1.000000	11.241379	0.000000	-1.000000	-1.000000	383736.000000	1772914704.112767
4774.005000	91066.905000	-11276.415000	-24024.960000	0.000000	0.000000	0.000000	0.000000	-3.604622	-7.394510	1.511297	-1.146878	-0.000000	0.000000	-0.000000	-0.000000	-2.075360	-0.854560	-0.824040	-0.114319	0.811033	0.586302	-1.000000	-1.000000	-1.000000	-1.000000	-1.000000	-1.000000	-1.000000	11.241379	0.000000	-1.000000	-1.000000	383737.000000	1772914704.112770
4769.055000	91069.380000	-11285.010000	-24034.455000	0.000000	0.000000	0.000000	0.000000	-12.952477	-22.222568	-3.211342	-7.824638	-0.000000	0.000000	-0.000000	-0.000000	-2.075360	-0.854560	-0.824040	-0.114319	0.811033	0.586302	-1.000000	-1.000000	-1.000000	-1.000000	-1.000000	-1.000000	-1.000000	11.241379	0.000000	-1.000000	-1.000000	383738.000000	1772914704.116132
4754.115000	91083.420000	-11308.365000	-24054.345000	0.000000	0.000000	0.000000	0.000000	-15.856218	-25.164246	-6.849794	-11.397278	-0.000000	0.000000	-0.000000	-0.000000	-2.075360	-0.854560	-0.824040	-0.114319	0.811033	0.586302	-1.000000	-1.000000	-1.000000	-1.000000	-1.000000	-1.000000	-1.000000	11.241379	0.000000	-1.000000	-1.000000	383739.000000	1772914704.116134
4759.380000	91103.670000	-11308.680000	-24055.245000	0.000000	0.000000	0.000000	0.000000	-12.107712	-14.626822	-8.811281	-11.262486	-0.000000	0.000000	-0.000000	-0.000000	-2.075360	-0.854560	-0.824040	-0.114319	0.811033	0.586302	-1.000000	-1.000000	-1.000000	-1.000000	-1.000000	-1.000000	-1.000000	11.241379	0.000000	-1.000000	-1.000000	383740.000000	1772914704.119387
4785.345000	91122.795000	-11287.350000	-24029.145000	0.000000	0.000000	0.000000	0.000000	-3.545495	3.651125	-7.660349	-6.985808	-0.000000	0.000000	-0.000000	-0.000000	-2.075360	-0.854560	-0.824040	-0.114319	0.811033	0.586302	-1.000000	-1.000000	-1.000000	-1.000000	-1.000000	-1.000000	-1.000000	11.241379	0.000000	-1.000000	-1.000000	383741.000000	1772914704.119389
4790.880000	91125.540000	-11281.230000	-24019.695000	0.000000	0.000000	0.000000	0.000000	7.371582	19.934754	-1.747164	1.692458	-0.000000	0.000000	-0.000000	-0.000000	-2.075360	-0.854560	-0.824040	-0.114319	0.811033	0.586302	-1.000000	-1.000000	-1.000000	-1.000000	-1.000000	-1.000000	-1.000000	11.241379	0.000000	-1.000000	-1.000000	383742.000000	1772914704.123490
4758.570000	91113.435000	-11304.270000	-24044.940000	0.000000	0.000000	0.000000	0.000000	15.728157	25.616086	6.614089	11.360978	-0.000000	0.000000	-0.000000	-0.000000	-2.075360	-0.854560	-0.824040	-0.114319	0.811033	0.586302	-1.000000	-1.000000	-1.000000	-1.000000	-1.000000	-1.000000	-1.000000	11.241379	0.000000	-1.000000	-1.000000	383743.000000	1772914704.123492
4782.285000	91095.255000	-11272.185000	-24019.155000	0.000000	0.000000	0.000000	0.000000	16.120843	17.688045	11.970831	15.876603	-0.000000	0.000000	-0.000000	-0.000000	-2.075360	-0.854560	-0.824040	-0.114319	0.811033	0.586302	-1.000000	-1.000000	-1.000000	-1.000000	-1.000000	-1.000000	-1.000000	11.241379	0.000000	-1.000000	-1.000000	383744.000000	1772914704.127325
4774.680000	91074.195000	-11278.980000	-24025.995000	0.000000	0.000000	0.000000	0.000000	8.996778	0.410849	12.012172	13.099481	-0.000000	0.000000	-0.000000	-0.000000	-2.075360	-0.854560	-0.824040	-0.114319	0.811033	0.586302	-1.000000	-1.000000	-1.000000	-1.000000	-1.000000	-1.000000	-1.000000	11.241379	0.000000	-1.000000	-1.000000	383745.000000	1772914704.127327
4789.395000	91066.140000	-11264.535000	-24014.655000	0.000000	0.000000	0.000000	0.000000	0.069524	-17.106960	8.326029	6.069334	-0.000000	0.000000	-0.000000	-0.000000	-2.945180	-0.900340	-1.510740	-0.114868	0.809690	0.586607	-1.000000	-1.000000	-1.000000	-1.000000	-1.000000	-1.000000	-1.000000	11.241379	0.000000	-1.000000	-1.000000	383746.000000	1772914704.131394
4816.485000	91075.995000	-11240.865000	-23987.745000	0.000000	0.000000	0.000000	0.000000	-5.309141	-25.699026	3.420382	-0.819889	-0.000000	0.000000	-0.000000	-0.000000	-2.945180	-0.900340	-1.510740	-0.114868	0.809690	0.586607	-1.000000	-1.000000	-1.000000	-1.000000	-1.000000	-1.000000	-1.000000	11.241379	0.000000	-1.000000	-1.000000	383747.000000	1772914704.131396
4799.475000	91095.120000	-11264.400000	-24005.745000	0.000000	0.000000	0.000000	0.000000	-5.458145	-20.742845	-0.900456	-4.664076	-0.000000	0.000000	-0.000000	-0.000000	-2.945180	-0.900340	-1.510740	-0.114868	0.809690	0.586607	-1.000000	-1.000000	-1.000000	-1.000000	-1.000000	-1.000000	-1.000000	11.241379	0.000000	-1.000000	-1.000000	383748.000000	1772914704.135433
4780.035000	91114.110000	-11290.095000	-24030.855000	0.000000	0.000000	0.000000	0.000000	-3.791783	-4.765150	-5.557349	-6.691238	-0.000000	0.000000	-0.000000	-0.000000	-2.945180	-0.900340	-1.510740	-0.114868	0.809690	0.586607	-1.000000	-1.000000	-1.000000	-1.000000	-1.000000	-1.000000	-1.000000	11.241379	0.000000	-1.000000	-1.000000	383749.000000	1772914704.135437
4779.090000	91120.545000	-11292.345000	-24035.490000	0.000000	0.000000	0.000000	0.000000	-4.798952	13.654687	-11.787771	-9.867682	-0.000000	0.000000	-0.000000	-0.000000	-2.945180	-0.900340	-1.510740	-0.114868	0.809690	0.586607	-1.000000	-1.000000	-1.000000	-1.000000	-1.000000	-1.000000	-1.000000	11.241379	0.000000	-1.000000	-1.000000	383750.000000	1772914704.139310
4780.215000	91112.805000	-11284.920000	-24027.840000	0.000000	0.000000	0.000000	0.000000	-7.917421	24.552605	-16.429269	-13.012328	-0.000000	0.000000	-0.000000	-0.000000	-2.945180	-0.900340	-1.510740	-0.114868	0.809690	0.586607	-1.000000	-1.000000	-1.000000	-1.000000	-1.000000	-1.000000	-1.000000	11.241379	0.000000	-1.000000	-1.000000	383751.000000	1772914704.139313
4774.230000	91091.430000	-11285.505000	-24029.640000	0.000000	0.000000	0.000000	0.000000	-9.035965	22.096869	-14.565458	-11.853163	-0.000000	0.000000	-0.000000	-0.000000	-2.945180	-0.900340	-1.510740	-0.114868	0.809690	0.586607	-1.000000	-1.000000	-1.000000	-1.000000	-1.000000	-1.000000	-1.000000	11.241379	0.000000	-1.000000	-1.000000	383752.000000	1772914704.143463
4797.810000	91072.755000	-11253.330000	-24002.775000	0.000000	0.000000	0.000000	0.000000	-5.629199	7.787387	-5.214089	-4.622167	-0.000000	0.000000	-0.000000	-0.000000	-2.945180	-0.900340	-1.510740	-0.114868	0.809690	0.586607	-1.000000	-1.000000	-1.000000	-1.000000	-1.000000	-1.000000	-1.000000	11.241379	0.000000	-1.000000	-1.000000	383753.000000	1772914704.143466
4820.760000	91064.790000	-11227.545000	-23975.370000	0.000000	0.000000	0.000000	0.000000	2.076286	-10.327089	8.294018	6.621854	0.000000	0.000000	-0.000000	-0.000000	-2.945180	-0.900340	-1.510740	-0.114868	0.809690	0.586607	-1.000000	-1.000000	-1.000000	-1.000000	-1.000000	-1.000000	-1.000000	11.241379	0.000000	-1.000000	-1.000000	383754.000000	1772914704.147421
4801.545000	91068.120000	-11254.905000	-23998.365000	0.000000	0.000000	0.000000	0.000000	10.804723	-22.199633	19.566445	16.767389	0.000000	0.000000	-0.000000	-0.000000	-2.945180	-0.900340	-1.510740	-0.114868	0.809690	0.586607	-1.000000	-1.000000	-1.000000	-1.000000	-1.000000	-1.000000	-1.000000	11.241379	0.000000	-1.000000	-1.000000	383755.000000	1772914704.147424
4797.585000	91085.940000	-11270.430000	-24015.555000	0.000000	0.000000	0.000000	0.000000	14.559192	-21.535624	20.909965	18.810559	0.000000	0.000000	-0.000000	-0.000000	-1.312360	0.213640	-1.205540	-0.113586	0.805723	0.589781	-1.000000	-1.000000	-1.000000	-1.000000	-1.000000	-1.000000	-1.000000	11.241379	0.000000	-1.000000	-1.000000	383756.000000	1772914704.151389
4771.260000	91104.480000	-11303.370000	-24043.815000	0.000000	0.000000	0.000000	0.000000	9.575947	-9.061043	9.549757	9.399387	0.000000	0.000000	-0.000000	-0.000000	-1.312360	0.213640	-1.205540	-0.113586	0.805723	0.589781	-1.000000	-1.000000	-1.000000	-1.000000	-1.000000	-1.000000	-1.000000	11.241379	0.000000	-1.000000	-1.000000	383757.000000	1772914704.151392
4757.760000	91118.250000	-11305.890000	-24042.555000	0.000000	0.000000	0.000000	0.000000	-1.801529	8.223924	-8.299801	-6.456814	0.000000	0.000000	-0.000000	-0.000000	-1.312360	0.213640	-1.205540	-0.113586	0.805723	0.589781	-1.000000	-1.000000	-1.000000	-1.000000	-1.000000	-1.000000	-1.000000	11.241379	0.000000	-1.000000	-1.000000	383758.000000	1772914704.155476
4796.100000	91119.420000	-11258.685000	-23991.840000	0.000000	0.000000	0.000000	0.000000	-12.107859	20.993034	-20.654924	-17.623011	0.000000	0.000000	-0.000000	-0.000000	-1.312360	0.213640	-1.205540	-0.113586	0.805723	0.589781	-1.000000	-1.000000	-1.000000	-1.000000	-1.000000	-1.000000	-1.000000	11.241379	0.000000	-1.000000	-1.000000	383759.000000	1772914704.155479
4783.635000	91101.285000	-11277.765000	-24020.820000	0.000000	0.000000	0.000000	0.000000	-13.667350	22.456700	-18.615193	-15.793111	0.000000	0.000000	-0.000000	-0.000000	-1.312360	0.213640	-1.205540	-0.113586	0.805723	0.589781	-1.000000	-1.000000	-1.000000	-1.000000	-1.000000	-1.000000	-1.000000	11.241379	0.000000	-1.000000	-1.000000	383760.000000	1772914704.159309
4743.225000	91078.920000	-11319.165000	-24072.750000	0.000000	0.000000	0.000000	0.000000	-6.796131	11.645923	-5.863854	-5.187276	0.000000	0.000000	-0.000000	-0.000000	-1.312360	0.213640	-1.205540	-0.113586	0.805723	0.589781	-1.000000	-1.000000	-1.000000	-1.000000	-1.000000	-1.000000	-1.000000	11.241379	0.000000	-1.000000	-1.000000	383761.000000	1772914704.159312
4740.345000	91064.610000	-11314.305000	-24065.280000	0.000000	0.000000	0.000000	0.000000	0.432086	-5.897237	5.354172	2.517832	0.000000	0.000000	-0.000000	-0.000000	-1.312360	0.213640	-1.205540	-0.113586	0.805723	0.589781	-1.000000	-1.000000	-1.000000	-1.000000	-1.000000	-1.000000	-1.000000	11.241379	0.000000	-1.000000	-1.000000	383762.000000	1772914704.163394
4751.370000	91067.130000	-11305.620000	-24053.580000	0.000000	0.000000	0.000000	0.000000	3.282214	-20.603673	8.952311	3.594671	0.000000	0.000000	-0.000000	-0.000000	-1.312360	0.213640	-1.205540	-0.113586	0.805723	0.589781	-1.000000	-1.000000	-1.000000	-1.000000	-1.000000	-1.000000	-1.000000	11.241379	0.000000	-1.000000	-1.000000	383763.000000	1772914704.163398
4768.560000	91085.085000	-11292.030000	-24035.940000	0.000000	0.000000	0.000000	0.000000	4.520852	-24.081449	8.415827	3.757650	0.000000	0.000000	-0.000000	-0.000000	-1.312360	0.213640	-1.205540	-0.113586	0.805723	0.589781	-1.000000	-1.000000	-1.000000	-1.000000	-1.000000	-1.000000	-1.000000	11.241379	0.000000	-1.000000	-1.000000	383764.000000	1772914704.167416
4776.975000	91108.800000	-11290.410000	-24031.485000	0.000000	0.000000	0.000000	0.000000	7.573663	-14.096455	8.208956	7.272735	0.000000	0.000000	-0.000000	-0.000000	-1.312360	0.213640	-1.205540	-0.113586	0.805723	0.589781	-1.000000	-1.000000	-1.000000	-1.000000	-1.000000	-1.000000	-1.000000	11.241379	0.000000	-1.000000	-1.000000	383765.000000	1772914704.167418
4780.305000	91125.855000	-11291.670000	-24031.890000	0.000000	0.000000	0.000000	0.000000	11.331993	3.929654	8.429501	11.876419	0.000000	0.000000	-0.000000	-0.000000	2.578940	0.885080	-3.067260	-0.110840	0.802366	0.592589	-1.000000	-1.000000	-1.000000	-1.000000	-1.000000	-1.000000	-1.000000	11.241379	0.000000	-1.000000	-1.000000	383766.000000	1772914704.171403
4787.145000	91127.925000	-11282.715000	-24023.295000	0.000000	0.000000	0.000000	0.000000	12.070062	19.924102	6.881554	12.789352	0.000000	0.000000	-0.000000	-0.000000	2.578940	0.885080	-3.067260	-0.110840	0.802366	0.592589	-1.000000	-1.000000	-1.000000	-1.000000	-1.000000	-1.000000	-1.000000	11.241379	0.000000	-1.000000	-1.000000	383767.000000	1772914704.171406
4785.570000	91113.750000	-11276.820000	-24020.010000	0.000000	0.000000	0.000000	0.000000	7.817758	24.884992	3.001842	8.261027	0.000000	0.000000	-0.000000	-0.000000	2.578940	0.885080	-3.067260	-0.110840	0.802366	0.592589	-1.000000	-1.000000	-1.000000	-1.000000	-1.000000	-1.000000	-1.000000	11.241379	0.000000	-1.000000	-1.000000	383768.000000	1772914704.175280
4772.610000	91094.085000	-11281.545000	-24026.715000	0.000000	0.000000	0.000000	0.000000	-0.333026	15.984658	-1.818706	0.302734	0.000000	0.000000	-0.000000	-0.000000	2.578940	0.885080	-3.067260	-0.110840	0.802366	0.592589	-1.000000	-1.000000	-1.000000	-1.000000	-1.000000	-1.000000	-1.000000	11.241379	0.000000	-1.000000	-1.000000	383769.000000	1772914704.175283
4768.380000	91076.895000	-11282.040000	-24030.315000	0.000000	0.000000	0.000000	0.000000	-9.471650	-1.850758	-6.201772	-7.937156	0.000000	0.000000	-0.000000	-0.000000	2.578940	0.885080	-3.067260	-0.110840	0.802366	0.592589	-1.000000	-1.000000	-1.000000	-1.000000	-1.000000	-1.000000	-1.000000	11.241379	0.000000	-1.000000	-1.000000	383770.000000	1772914704.179389
4791.510000	91075.410000	-11261.430000	-24011.820000	0.000000	0.000000	0.000000	0.000000	-15.420061	-18.768077	-8.771039	-13.265282	0.000000	0.000000	-0.000000	-0.000000	2.578940	0.885080	-3.067260	-0.110840	0.802366	0.592589	-1.000000	-1.000000	-1.000000	-1.000000	-1.000000	-1.000000	-1.000000	11.241379	0.000000	-1.000000	-1.000000	383771.000000	1772914704.179392
4782.780000	91087.605000	-11275.245000	-24019.380000	0.000000	0.000000	0.000000	0.000000	-14.597365	-25.485820	-8.241441	-13.250347	0.000000	0.000000	-0.000000	-0.000000	2.578940	0.885080	-3.067260	-0.110840	0.802366	0.592589	-1.000000	-1.000000	-1.000000	-1.000000	-1.000000	-1.000000	-1.000000	11.241379	0.000000	-1.000000	-1.000000	383772.000000	1772914704.183523
4766.220000	91107.450000	-11299.005000	-24039.990000	0.000000	0.000000	0.000000	0.000000	-8.163370	-18.412369	-5.906007	-8.941333	0.000000	0.000000	-0.000000	-0.000000	2.578940	0.885080	-3.067260	-0.110840	0.802366	0.592589	-1.000000	-1.000000	-1.000000	-1.000000	-1.000000	-1.000000	-1.000000	11.241379	0.000000	-1.000000	-1.000000	383773.000000	1772914704.183526
4741.830000	91123.740000	-11328.885000	-24074.190000	0.000000	0.000000	0.000000	0.000000	-1.726826	-1.598402	-5.211409	-4.876997	0.000000	0.000000	-0.000000	-0.000000	2.578940	0.885080	-3.067260	-0.110840	0.802366	0.592589	-1.000000	-1.000000	-1.000000	-1.000000	-1.000000	-1.000000	-1.000000	11.241379	0.000000	-1.000000	-1.000000	383774.000000	1772914704.187359
4745.295000	91131.750000	-11321.235000	-24069.555000	0.000000	0.000000	0.000000	0.000000	0.844045	15.708394	-6.823848	-3.906786	0.000000	0.000000	-0.000000	-0.000000	2.578940	0.885080	-3.067260	-0.110840	0.802366	0.592589	-1.000000	-1.000000	-1.000000	-1.000000	-1.000000	-1.000000	-1.000000	11.241379	0.000000	-1.000000	-1.000000	383775.000000	1772914704.187361
4796.955000	91124.955000	-11258.370000	-24005.250000	0.000000	0.000000	0.000000	0.000000	1.968941	24.348343	-5.704951	-2.454151	0.000000	0.000000	-0.000000	-0.000000	2.624720	0.396760	-3.830260	-0.109375	0.801023	0.591978	-1.000000	-1.000000	-1.000000	-1.000000	-1.000000	-1.000000	-1.000000	11.241379	0.000000	-1.000000	-1.000000	383776.000000	1772914704.191329
4807.620000	91102.770000	-11241.495000	-23989.815000	0.000000	0.000000	0.000000	0.000000	6.782465	19.961115	3.669737	5.471277	0.000000	0.000000	-0.000000	-0.000000	2.624720	0.396760	-3.830260	-0.109375	0.801023	0.591978	-1.000000	-1.000000	-1.000000	-1.000000	-1.000000	-1.000000	-1.000000	11.241379	0.000000	-1.000000	-1.000000	383777.000000	1772914704.191332
4756.680000	91079.910000	-11290.635000	-24040.890000	0.000000	0.000000	0.000000	0.000000	13.616936	4.860060	17.019941	16.986913	0.000000	0.000000	-0.000000	-0.000000	2.624720	0.396760	-3.830260	-0.109375	0.801023	0.591978	-1.000000	-1.000000	-1.000000	-1.000000	-1.000000	-1.000000	-1.000000	11.241379	0.000000	-1.000000	-1.000000	383778.000000	1772914704.195377
4760.460000	91070.550000	-11287.980000	-24036.795000	0.000000	0.000000	0.000000	0.000000	13.916394	-13.053137	21.748982	20.511969	0.000000	0.000000	-0.000000	-0.000000	2.624720	0.396760	-3.830260	-0.109375	0.801023	0.591978	-1.000000	-1.000000	-1.000000	-1.000000	-1.000000	-1.000000	-1.000000	11.241379	0.000000	-1.000000	-1.000000	383779.000000	1772914704.195379
4759.785000	91074.645000	-11294.775000	-24038.280000	0.000000	0.000000	0.000000	0.000000	4.817970	-24.091997	12.396853	11.077927	0.000000	0.000000	-0.000000	-0.000000	2.624720	0.396760	-3.830260	-0.109375	0.801023	0.591978	-1.000000	-1.000000	-1.000000	-1.000000	-1.000000	-1.000000	-1.000000	11.241379	0.000000	-1.000000	-1.000000	383780.000000	1772914704.199739
4779.585000	91094.400000	-11280.240000	-24020.955000	0.000000	0.000000	0.000000	0.000000	-6.308035	-22.067171	-3.308993	-3.554757	0.000000	0.000000	-0.000000	-0.000000	2.624720	0.396760	-3.830260	-0.109375	0.801023	0.591978	-1.000000	-1.000000	-1.000000	-1.000000	-1.000000	-1.000000	-1.000000	11.241379	0.000000	-1.000000	-1.000000	383781.000000	1772914704.199742
4837.320000	91116.810000	-11223.405000	-23960.565000	0.000000	0.000000	0.000000	0.000000	-10.065671	-7.832044	-13.160891	-11.828400	0.000000	0.000000	-0.000000	-0.000000	2.624720	0.396760	-3.830260	-0.109375	0.801023	0.591978	-1.000000	-1.000000	-1.000000	-1.000000	-1.000000	-1.000000	-1.000000	11.241379	0.000000	-1.000000	-1.000000	383782.000000	1772914704.205726
4860.180000	91132.785000	-11199.330000	-23937.255000	0.000000	0.000000	0.000000	0.000000	-3.010157	11.152077	-10.206821	-7.885034	0.000000	0.000000	-0.000000	-0.000000	2.624720	0.396760	-3.830260	-0.109375	0.801023	0.591978	-1.000000	-1.000000	-1.000000	-1.000000	-1.000000	-1.000000	-1.000000	11.241379	0.000000	-1.000000	-1.000000	383783.000000	1772914704.205728
4822.920000	91129.185000	-11227.725000	-23961.645000	0.000000	0.000000	0.000000	0.000000	8.171310	24.730483	1.062029	3.052622	0.000000	0.000000	-0.000000	-0.000000	2.624720	0.396760	-3.830260	-0.109375	0.801023	0.591978	-1.000000	-1.000000	-1.000000	-1.000000	-1.000000	-1.000000	-1.000000	11.241379	0.000000	-1.000000	-1.000000	383784.000000	1772914704.208858
4734.405000	91108.530000	-11315.340000	-24059.160000	0.000000	0.000000	0.000000	0.000000	9.782518	25.327269	6.669106	7.037807	0.000000	0.000000	-0.000000	-0.000000	2.624720	0.396760	-3.830260	-0.109375	0.801023	0.591978	-1.000000	-1.000000	-1.000000	-1.000000	-1.000000	-1.000000	-1.000000	11.241379	0.000000	-1.000000	-1.000000	383785.000000	1772914704.208861
4725.270000	91087.110000	-11328.255000	-24091.830000	0.000000	0.000000	0.000000	0.000000	-5.093012	12.178224	-2.978644	-5.341902	0.000000	0.000000	-0.000000	-0.000000	1.831200	1.388660	-5.539380	-0.110962	0.799253	0.591734	-1.000000	-1.000000	-1.000000	-1.000000	-1.000000	-1.000000	-1.000000	11.241379	0.000000	-1.000000	-1.000000	383786.000000	1772914704.213859
4785.075000	91077.255000	-11266.245000	-24029.325000	0.000000	0.000000	0.000000	0.000000	-24.785057	-7.693631	-19.458742	-25.123284	0.000000	0.000000	-0.000000	-0.000000	1.831200	1.388660	-5.539380	-0.110962	0.799253	0.591734	-1.000000	-1.000000	-1.000000	-1.000000	-1.000000	-1.000000	-1.000000	11.241379	0.000000	-1.000000	-1.000000	383787.000000	1772914704.213862
4807.890000	91088.955000	-11240.190000	-23998.815000	0.000000	0.000000	0.000000	0.000000	-28.576344	-23.052964	-23.302862	-30.691383	0.000000	0.000000	-0.000000	-0.000000	1.831200	1.388660	-5.539380	-0.110962	0.799253	0.591734	-1.000000	-1.000000	-1.000000	-1.000000	-1.000000	-1.000000	-1.000000	11.241379	0.000000	-1.000000	-1.000000	383788.000000	1772914704.217082
4827.285000	91110.195000	-11218.455000	-23964.570000	0.000000	0.000000	0.000000	0.000000	-9.890019	-25.064993	-6.788035	-11.776853	0.000000	0.000000	-0.000000	-0.000000	1.831200	1.388660	-5.539380	-0.110962	0.799253	0.591734	-1.000000	-1.000000	-1.000000	-1.000000	-1.000000	-1.000000	-1.000000	11.241379	0.000000	-1.000000	-1.000000	383789.000000	1772914704.217085
4795.335000	91126.485000	-11257.830000	-24003.135000	0.000000	0.000000	0.000000	0.000000	16.868446	-12.935937	17.291554	18.646531	0.000000	0.000000	-0.000000	-0.000000	1.831200	1.388660	-5.539380	-0.110962	0.799253	0.591734	-1.000000	-1.000000	-1.000000	-1.000000	-1.000000	-1.000000	-1.000000	11.241379	0.000000	-1.000000	-1.000000	383790.000000	1772914704.220130
4724.640000	91137.105000	-11341.215000	-24094.440000	0.000000	0.000000	0.000000	0.000000	30.432006	5.585304	28.220085	36.110344	0.000000	0.000000	-0.000000	-0.000000	1.831200	1.388660	-5.539380	-0.110962	0.799253	0.591734	-1.000000	-1.000000	-1.000000	-1.000000	-1.000000	-1.000000	-1.000000	11.241379	0.000000	-1.000000	-1.000000	383791.000000	1772914704.220133
4750.335000	91138.320000	-11316.780000	-24071.490000	0.000000	0.000000	0.000000	0.000000	21.367212	19.603158	16.696310	26.889397	0.000000	0.000000	-0.000000	-0.000000	1.831200	1.388660	-5.539380	-0.110962	0.799253	0.591734	-1.000000	-1.000000	-1.000000	-1.000000	-1.000000	-1.000000	-1.000000	11.241379	0.000000	-1.000000	-1.000000	383792.000000	1772914704.223710
4804.740000	91124.550000	-11252.295000	-23995.440000	0.000000	0.000000	0.000000	0.000000	1.315659	21.808035	-4.381807	2.933967	0.000000	0.000000	-0.000000	-0.000000	1.831200	1.388660	-5.539380	-0.110962	0.799253	0.591734	-1.000000	-1.000000	-1.000000	-1.000000	-1.000000	-1.000000	-1.000000	11.241379	0.000000	-1.000000	-1.000000	383793.000000	1772914704.223713
4854.060000	91104.975000	-11184.660000	-23931.045000	0.000000	0.000000	0.000000	0.000000	-9.145757	11.770667	-12.509539	-10.330852	0.000000	0.000000	-0.000000	-0.000000	1.831200	1.388660	-5.539380	-0.110962	0.799253	0.591734	-1.000000	-1.000000	-1.000000	-1.000000	-1.000000	-1.000000	-1.000000	11.241379	0.000000	-1.000000	-1.000000	383794.000000	1772914704.227436
4876.965000	91090.935000	-11155.455000	-23900.535000	0.000000	0.000000	0.000000	0.000000	-2.302635	-4.651995	0.049221	-2.074328	0.000000	0.000000	-0.000000	-0.000000	1.831200	1.388660	-5.539380	-0.110962	0.799253	0.591734	-1.000000	-1.000000	-1.000000	-1.000000	-1.000000	-1.000000	-1.000000	11.241379	0.000000	-1.000000	-1.000000	383795.000000	1772914704.227438
4743.945000	91077.840000	-11290.230000	-24043.680000	0.000000	0.000000	0.000000	0.000000	9.068189	-18.700502	17.217544	12.574906	0.000000	0.000000	-0.000000	-0.000000	1.861720	2.380560	-6.805960	-0.111267	0.802793	0.590819	-1.000000	-1.000000	-1.000000	-1.000000	-1.000000	-1.000000	-1.000000	11.241379	0.000000	-1.000000	-1.000000	383796.000000	1772914704.231361
4737.555000	91088.505000	-11292.615000	-24042.690000	0.000000	0.000000	0.000000	0.000000	5.745296	-23.245998	15.558909	9.896255	0.000000	0.000000	-0.000000	-0.000000	1.861720	2.380560	-6.805960	-0.111267	0.802793	0.590819	-1.000000	-1.000000	-1.000000	-1.000000	-1.000000	-1.000000	-1.000000	11.241379	0.000000	-1.000000	-1.000000	383797.000000	1772914704.231364
4820.670000	91120.860000	-11219.805000	-23965.110000	0.000000	0.000000	0.000000	0.000000	-12.215565	-15.613646	-6.287126	-11.476128	0.000000	0.000000	-0.000000	-0.000000	1.861720	2.380560	-6.805960	-0.111267	0.802793	0.590819	-1.000000	-1.000000	-1.000000	-1.000000	-1.000000	-1.000000	-1.000000	11.241379	0.000000	-1.000000	-1.000000	383798.000000	1772914704.235482
4771.305000	91137.870000	-11295.270000	-24025.995000	0.000000	0.000000	0.000000	0.000000	-24.646137	1.267668	-26.514620	-29.300700	0.000000	0.000000	-0.000000	-0.000000	1.861720	2.380560	-6.805960	-0.111267	0.802793	0.590819	-1.000000	-1.000000	-1.000000	-1.000000	-1.000000	-1.000000	-1.000000	11.241379	0.000000	-1.000000	-1.000000	383799.000000	1772914704.235485
4745.295000	91140.480000	-11330.865000	-24064.920000	0.000000	0.000000	0.000000	0.000000	-20.701927	18.834380	-31.217388	-30.111938	0.000000	0.000000	-0.000000	-0.000000	1.861720	2.380560	-6.805960	-0.111267	0.802793	0.590819	-1.000000	-1.000000	-1.000000	-1.000000	-1.000000	-1.000000	-1.000000	11.241379	0.000000	-1.000000	-1.000000	383800.000000	1772914704.239443
4751.910000	91134.720000	-11297.025000	-24051.285000	0.000000	0.000000	0.000000	0.000000	-8.009831	26.997325	-23.347616	-19.374922	0.000000	0.000000	-0.000000	-0.000000	1.861720	2.380560	-6.805960	-0.111267	0.802793	0.590819	-1.000000	-1.000000	-1.000000	-1.000000	-1.000000	-1.000000	-1.000000	11.241379	0.000000	-1.000000	-1.000000	383801.000000	1772914704.239446
4730.130000	91115.280000	-11298.465000	-24077.925000	0.000000	0.000000	0.000000	0.000000	4.006386	20.903638	-7.516091	-4.893929	0.000000	0.000000	-0.000000	-0.000000	1.861720	2.380560	-6.805960	-0.111267	0.802793	0.590819	-1.000000	-1.000000	-1.000000	-1.000000	-1.000000	-1.000000	-1.000000	11.241379	0.000000	-1.000000	-1.000000	383802.000000	1772914704.243436
4738.635000	91098.585000	-11303.730000	-24069.555000	0.000000	0.000000	0.000000	0.000000	11.657904	3.898964	11.793894	9.117697	0.000000	0.000000	-0.000000	-0.000000	1.861720	2.380560	-6.805960	-0.111267	0.802793	0.590819	-1.000000	-1.000000	-1.000000	-1.000000	-1.000000	-1.000000	-1.000000	11.241379	0.000000	-1.000000	-1.000000	383803.000000	1772914704.243439
4740.210000	91090.980000	-11313.675000	-24060.870000	0.000000	0.000000	0.000000	0.000000	14.867989	-14.870261	26.303265	19.747658	0.000000	0.000000	-0.000000	-0.000000	1.861720	2.380560	-6.805960	-0.111267	0.802793	0.590819	-1.000000	-1.000000	-1.000000	-1.000000	-1.000000	-1.000000	-1.000000	11.241379	0.000000	-1.000000	-1.000000	383804.000000	1772914704.247470
4754.295000	91096.065000	-11289.780000	-24037.605000	0.000000	0.000000	0.000000	0.000000	15.232559	-25.609898	29.868460	25.780793	0.000000	0.000000	-0.000000	-0.000000	1.861720	2.380560	-6.805960	-0.111267	0.802793	0.590819	-1.000000	-1.000000	-1.000000	-1.000000	-1.000000	-1.000000	-1.000000	11.241379	0.000000	-1.000000	-1.000000	383805.000000	1772914704.247473
4793.130000	91113.210000	-11258.100000	-24003.000000	0.000000	0.000000	0.000000	0.000000	14.490855	-23.041056	24.135421	27.282508	0.000000	0.000000	-0.000000	-0.000000	-1.281840	2.639980	-10.208940	-0.113220	0.809385	0.589293	-1.000000	-1.000000	-1.000000	-1.000000	-1.000000	-1.000000	-1.000000	11.241379	0.000000	-1.000000	-1.000000	383806.000000	1772914704.251412
4832.910000	91138.680000	-11230.605000	-23972.220000	0.000000	0.000000	0.000000	0.000000	14.055526	-8.792686	15.343778	24.643508	0.000000	0.000000	-0.000000	-0.000000	-1.281840	2.639980	-10.208940	-0.113220	0.809385	0.589293	-1.000000	-1.000000	-1.000000	-1.000000	-1.000000	-1.000000	-1.000000	11.241379	0.000000	-1.000000	-1.000000	383807.000000	1772914704.251415
4828.500000	91147.545000	-11233.260000	-23960.970000	0.000000	0.000000	0.000000	0.000000	13.119620	9.687915	7.116277	17.709119	0.000000	0.000000	-0.000000	-0.000000	-1.281840	2.639980	-10.208940	-0.113220	0.809385	0.589293	-1.000000	-1.000000	-1.000000	-1.000000	-1.000000	-1.000000	-1.000000	11.241379	0.000000	-1.000000	-1.000000	383808.000000	1772914704.255318
4826.745000	91142.955000	-11218.140000	-23941.665000	0.000000	0.000000	0.000000	0.000000	7.713218	22.631057	-1.325092	6.139790	0.000000	0.000000	-0.000000	-0.000000	-1.281840	2.639980	-10.208940	-0.113220	0.809385	0.589293	-1.000000	-1.000000	-1.000000	-1.000000	-1.000000	-1.000000	-1.000000	11.241379	0.000000	-1.000000	-1.000000	383809.000000	1772914704.255321
4808.610000	91122.840000	-11233.170000	-23979.240000	0.000000	0.000000	0.000000	0.000000	-4.615613	22.966764	-10.931359	-9.125393	0.000000	0.000000	-0.000000	-0.000000	-1.281840	2.639980	-10.208940	-0.113220	0.809385	0.589293	-1.000000	-1.000000	-1.000000	-1.000000	-1.000000	-1.000000	-1.000000	11.241379	0.000000	-1.000000	-1.000000	383810.000000	1772914704.259361
4830.165000	91105.785000	-11215.530000	-23975.505000	0.000000	0.000000	0.000000	0.000000	-19.827400	10.578601	-19.850041	-25.240050	0.000000	0.000000	-0.000000	-0.000000	-1.281840	2.639980	-10.208940	-0.113220	0.809385	0.589293	-1.000000	-1.000000	-1.000000	-1.000000	-1.000000	-1.000000	-1.000000	11.241379	0.000000	-1.000000	-1.000000	383811.000000	1772914704.259363
4801.545000	91090.440000	-11251.305000	-23996.385000	0.000000	0.000000	0.000000	0.000000	-29.810637	-7.464602	-24.854847	-36.879448	0.000000	0.000000	-0.000000	-0.000000	-1.281840	2.639980	-10.208940	-0.113220	0.809385	0.589293	-1.000000	-1.000000	-1.000000	-1.000000	-1.000000	-1.000000	-1.000000	11.241379	0.000000	-1.000000	-1.000000	383812.000000	1772914704.263315
4799.160000	91092.060000	-11253.915000	-23958.540000	0.000000	0.000000	0.000000	0.000000	-29.836451	-21.151020	-24.485273	-37.659036	0.000000	0.000000	-0.000000	-0.000000	-1.281840	2.639980	-10.208940	-0.113220	0.809385	0.589293	-1.000000	-1.000000	-1.000000	-1.000000	-1.000000	-1.000000	-1.000000	11.241379	0.000000	-1.000000	-1.000000	383813.000000	1772914704.263318
4801.095000	91107.360000	-11260.170000	-23949.540000	0.000000	0.000000	0.000000	0.000000	-20.894170	-23.123555	-19.050496	-24.562134	0.000000	0.000000	-0.000000	-0.000000	-1.281840	2.639980	-10.208940	-0.113220	0.809385	0.589293	-1.000000	-1.000000	-1.000000	-1.000000	-1.000000	-1.000000	-1.000000	11.241379	0.000000	-1.000000	-1.000000	383814.000000	1772914704.267575
4829.355000	91132.290000	-11219.220000	-23959.710000	0.000000	0.000000	0.000000	0.000000	-6.077417	-12.319813	-8.422674	-2.434223	0.000000	0.000000	-0.000000	-0.000000	-1.281840	2.639980	-10.208940	-0.113220	0.809385	0.589293	-1.000000	-1.000000	-1.000000	-1.000000	-1.000000	-1.000000	-1.000000	11.241379	0.000000	-1.000000	-1.000000	383815.000000	1772914704.267577
4885.695000	91151.955000	-11157.570000	-23921.460000	0.000000	0.000000	0.000000	0.000000	11.629472	5.634438	7.694235	18.047325	0.000000	0.000000	-0.000000	-0.000000	-10.773560	-4.776380	-1.907500	-0.122619	0.834593	0.591795	-1.000000	-1.000000	-1.000000	-1.000000	-1.000000	-1.000000	-1.000000	11.241379	0.000000	-1.000000	-1.000000	383816.000000	1772914704.271338
4810.410000	91146.735000	-11247.255000	-23988.285000	0.000000	0.000000	0.000000	0.000000	26.508046	21.056061	24.257518	27.842121	0.000000	0.000000	-0.000000	-0.000000	-10.773560	-4.776380	-1.907500	-0.122619	0.834593	0.591795	-1.000000	-1.000000	-1.000000	-1.000000	-1.000000	-1.000000	-1.000000	11.241379	0.000000	-1.000000	-1.000000	383817.000000	1772914704.271340
4740.660000	91127.880000	-11355.480000	-24097.320000	0.000000	0.000000	0.000000	0.000000	27.706882	25.011669	27.187858	21.179666	0.000000	0.000000	-0.000000	-0.000000	-10.773560	-4.776380	-1.907500	-0.122619	0.834593	0.591795	-1.000000	-1.000000	-1.000000	-1.000000	-1.000000	-1.000000	-1.000000	11.241379	0.000000	-1.000000	-1.000000	383818.000000	1772914704.275430
4770.675000	91110.870000	-11335.455000	-24055.020000	0.000000	0.000000	0.000000	0.000000	10.750605	14.813273	8.450388	-0.130577	0.000000	0.000000	-0.000000	-0.000000	-10.773560	-4.776380	-1.907500	-0.122619	0.834593	0.591795	-1.000000	-1.000000	-1.000000	-1.000000	-1.000000	-1.000000	-1.000000	11.241379	0.000000	-1.000000	-1.000000	383819.000000	1772914704.275433
4826.205000	91097.460000	-11266.920000	-24002.145000	0.000000	0.000000	0.000000	0.000000	-10.140277	-3.667639	-16.088361	-18.872269	0.000000	0.000000	-0.000000	-0.000000	-10.773560	-4.776380	-1.907500	-0.122619	0.834593	0.591795	-1.000000	-1.000000	-1.000000	-1.000000	-1.000000	-1.000000	-1.000000	11.241379	0.000000	-1.000000	-1.000000	383820.000000	1772914704.279359
4824.900000	91092.960000	-11299.995000	-24055.695000	0.000000	0.000000	0.000000	0.000000	-15.853936	-19.825191	-22.288953	-17.422336	0.000000	0.000000	-0.000000	-0.000000	-10.773560	-4.776380	-1.907500	-0.122619	0.834593	0.591795	-1.000000	-1.000000	-1.000000	-1.000000	-1.000000	-1.000000	-1.000000	11.241379	0.000000	-1.000000	-1.000000	383821.000000	1772914704.279363
4797.000000	91100.970000	-11304.270000	-24054.840000	0.000000	0.000000	0.000000	0.000000	-5.077563	-25.072818	-7.130934	0.303385	0.000000	0.000000	-0.000000	-0.000000	-10.773560	-4.776380	-1.907500	-0.122619	0.834593	0.591795	-1.000000	-1.000000	-1.000000	-1.000000	-1.000000	-1.000000	-1.000000	11.241379	0.000000	-1.000000	-1.000000	383822.000000	1772914704.283491
4804.245000	91124.055000	-11281.590000	-24022.350000	0.000000	0.000000	0.000000	0.000000	7.836125	-17.110635	13.335418	17.933961	0.000000	0.000000	-0.000000	-0.000000	-10.773560	-4.776380	-1.907500	-0.122619	0.834593	0.591795	-1.000000	-1.000000	-1.000000	-1.000000	-1.000000	-1.000000	-1.000000	11.241379	0.000000	-1.000000	-1.000000	383823.000000	1772914704.283494
4749.435000	91140.525000	-11355.255000	-24083.730000	0.000000	0.000000	0.000000	0.000000	10.953961	-0.298384	24.075906	25.314513	0.000000	0.000000	-0.000000	-0.000000	-10.773560	-4.776380	-1.907500	-0.122619	0.834593	0.591795	-1.000000	-1.000000	-1.000000	-1.000000	-1.000000	-1.000000	-1.000000	11.241379	0.000000	-1.000000	-1.000000	383824.000000	1772914704.287371
4755.960000	91148.445000	-11379.870000	-24084.720000	0.000000	0.000000	0.000000	0.000000	3.092468	16.621735	18.516198	19.639932	0.000000	0.000000	-0.000000	-0.000000	-10.773560	-4.776380	-1.907500	-0.122619	0.834593	0.591795	-1.000000	-1.000000	-1.000000	-1.000000	-1.000000	-1.000000	-1.000000	11.241379	0.000000	-1.000000	-1.000000	383825.000000	1772914704.287374
4741.515000	91139.580000	-11361.285000	-24064.605000	0.000000	0.000000	0.000000	0.000000	-8.290448	24.788397	1.214678	5.124058	0.000000	0.000000	-0.000000	-0.000000	-10.575180	-0.442540	-11.261880	-0.117737	0.815916	0.596617	-1.000000	-1.000000	-1.000000	-1.000000	-1.000000	-1.000000	-1.000000	11.241379	0.000000	-1.000000	-1.000000	383826.000000	1772914704.291392
4746.915000	91118.970000	-11325.330000	-24050.340000	0.000000	0.000000	0.000000	0.000000	-13.835360	19.857949	-13.018243	-7.443536	0.000000	0.000000	-0.000000	-0.000000	-10.575180	-0.442540	-11.261880	-0.117737	0.815916	0.596617	-1.000000	-1.000000	-1.000000	-1.000000	-1.000000	-1.000000	-1.000000	11.241379	0.000000	-1.000000	-1.000000	383827.000000	1772914704.291395
4753.845000	91098.135000	-11290.725000	-24016.950000	0.000000	0.000000	0.000000	0.000000	-9.635529	4.331279	-12.131178	-10.056192	0.000000	0.000000	-0.000000	-0.000000	-10.575180	-0.442540	-11.261880	-0.117737	0.815916	0.596617	-1.000000	-1.000000	-1.000000	-1.000000	-1.000000	-1.000000	-1.000000	11.241379	0.000000	-1.000000	-1.000000	383828.000000	1772914704.295463
4775.940000	91090.125000	-11265.255000	-24011.235000	0.000000	0.000000	0.000000	0.000000	1.642480	-13.595811	2.211160	-3.727497	0.000000	0.000000	-0.000000	-0.000000	-10.575180	-0.442540	-11.261880	-0.117737	0.815916	0.596617	-1.000000	-1.000000	-1.000000	-1.000000	-1.000000	-1.000000	-1.000000	11.241379	0.000000	-1.000000	-1.000000	383829.000000	1772914704.295466
4791.780000	91095.255000	-11258.640000	-23990.085000	0.000000	0.000000	0.000000	0.000000	14.037812	-24.264482	17.634973	4.366111	0.000000	0.000000	-0.000000	-0.000000	-10.575180	-0.442540	-11.261880	-0.117737	0.815916	0.596617	-1.000000	-1.000000	-1.000000	-1.000000	-1.000000	-1.000000	-1.000000	11.241379	0.000000	-1.000000	-1.000000	383830.000000	1772914704.299436
4781.610000	91114.785000	-11297.205000	-23996.295000	0.000000	0.000000	0.000000	0.000000	21.058945	-21.868342	21.133570	7.227291	0.000000	0.000000	-0.000000	-0.000000	-10.575180	-0.442540	-11.261880	-0.117737	0.815916	0.596617	-1.000000	-1.000000	-1.000000	-1.000000	-1.000000	-1.000000	-1.000000	11.241379	0.000000	-1.000000	-1.000000	383831.000000	1772914704.299439
4754.745000	91141.245000	-11299.905000	-24015.600000	0.000000	0.000000	0.000000	0.000000	17.792104	-7.559070	8.038869	2.084732	0.000000	0.000000	-0.000000	-0.000000	-10.575180	-0.442540	-11.261880	-0.117737	0.815916	0.596617	-1.000000	-1.000000	-1.000000	-1.000000	-1.000000	-1.000000	-1.000000	11.241379	0.000000	-1.000000	-1.000000	383832.000000	1772914704.304195
4816.755000	91159.110000	-11245.815000	-24018.570000	0.000000	0.000000	0.000000	0.000000	5.506284	11.305227	-12.936011	-8.892810	0.000000	0.000000	-0.000000	-0.000000	-10.575180	-0.442540	-11.261880	-0.117737	0.815916	0.596617	-1.000000	-1.000000	-1.000000	-1.000000	-1.000000	-1.000000	-1.000000	11.241379	0.000000	-1.000000	-1.000000	383833.000000	1772914704.304198
4886.820000	91158.930000	-11184.795000	-23909.895000	0.000000	0.000000	0.000000	0.000000	-5.550849	24.823776	-24.864322	-17.337531	0.000000	0.000000	-0.000000	-0.000000	-10.575180	-0.442540	-11.261880	-0.117737	0.815916	0.596617	-1.000000	-1.000000	-1.000000	-1.000000	-1.000000	-1.000000	-1.000000	11.241379	0.000000	-1.000000	-1.000000	383834.000000	1772914704.307368
4824.675000	91136.520000	-11282.940000	-23941.395000	0.000000	0.000000	0.000000	0.000000	-7.313129	25.395162	-20.518853	-13.977284	0.000000	0.000000	-0.000000	-0.000000	-10.575180	-0.442540	-11.261880	-0.117737	0.815916	0.596617	-1.000000	-1.000000	-1.000000	-1.000000	-1.000000	-1.000000	-1.000000	11.241379	0.000000	-1.000000	-1.000000	383835.000000	1772914704.307371
4766.355000	91109.025000	-11340.135000	-24005.295000	0.000000	0.000000	0.000000	0.000000	-6.572284	11.852691	-11.908883	-2.766589	-0.000000	0.000000	-0.000000	-0.000000	-6.454980	5.234180	-6.561800	-0.114380	0.793516	0.596251	-1.000000	-1.000000	-1.000000	-1.000000	-1.000000	-1.000000	-1.000000	11.241379	0.000000	-1.000000	-1.000000	383836.000000	1772914704.311480
4861.395000	91096.560000	-11205.450000	-23923.755000	0.000000	0.000000	0.000000	0.000000	-11.990426	-9.091006	-9.746858	3.436361	-0.000000	0.000000	-0.000000	-0.000000	-6.454980	5.234180	-6.561800	-0.114380	0.793516	0.596251	-1.000000	-1.000000	-1.000000	-1.000000	-1.000000	-1.000000	-1.000000	11.241379	0.000000	-1.000000	-1.000000	383837.000000	1772914704.311483
5023.935000	91108.710000	-11023.425000	-23786.595000	0.000000	0.000000	0.000000	0.000000	-14.068451	-25.676719	-2.595649	5.371045	-0.000000	0.000000	-0.000000	-0.000000	-6.454980	5.234180	-6.561800	-0.114380	0.793516	0.596251	-1.000000	-1.000000	-1.000000	-1.000000	-1.000000	-1.000000	-1.000000	11.241379	0.000000	-1.000000	-1.000000	383838.000000	1772914704.315782
4974.930000	91120.275000	-11069.055000	-23848.650000	0.000000	0.000000	0.000000	0.000000	0.013583	-28.103707	21.351989	12.398414	-0.000000	0.000000	-0.000000	-0.000000	-6.454980	5.234180	-6.561800	-0.114380	0.793516	0.596251	-1.000000	-1.000000	-1.000000	-1.000000	-1.000000	-1.000000	-1.000000	11.241379	0.000000	-1.000000	-1.000000	383839.000000	1772914704.315785
4853.025000	91128.645000	-11317.410000	-23992.830000	0.000000	0.000000	0.000000	0.000000	17.240672	-15.437167	40.653272	16.309393	-0.000000	0.000000	-0.000000	-0.000000	-6.454980	5.234180	-6.561800	-0.114380	0.793516	0.596251	-1.000000	-1.000000	-1.000000	-1.000000	-1.000000	-1.000000	-1.000000	11.241379	0.000000	-1.000000	-1.000000	383840.000000	1772914704.319468
4803.705000	91139.085000	-11507.175000	-24040.665000	0.000000	0.000000	0.000000	0.000000	11.372280	4.101999	18.367800	-0.649568	-0.000000	0.000000	-0.000000	-0.000000	-6.454980	5.234180	-6.561800	-0.114380	0.793516	0.596251	-1.000000	-1.000000	-1.000000	-1.000000	-1.000000	-1.000000	-1.000000	11.241379	0.000000	-1.000000	-1.000000	383841.000000	1772914704.319471
4897.395000	91148.535000	-11451.645000	-23984.550000	0.000000	0.000000	0.000000	0.000000	-16.950568	19.776399	-42.833853	-32.131074	-0.000000	0.000000	-0.000000	-0.000000	-6.454980	5.234180	-6.561800	-0.114380	0.793516	0.596251	-1.000000	-1.000000	-1.000000	-1.000000	-1.000000	-1.000000	-1.000000	11.241379	0.000000	-1.000000	-1.000000	383842.000000	1772914704.323476
4859.280000	91134.270000	-11428.290000	-24078.465000	0.000000	0.000000	0.000000	0.000000	-38.507798	24.634528	-89.999188	-50.170453	-0.000000	0.000000	-0.000000	-0.000000	-6.454980	5.234180	-6.561800	-0.114380	0.793516	0.596251	-1.000000	-1.000000	-1.000000	-1.000000	-1.000000	-1.000000	-1.000000	11.241379	0.000000	-1.000000	-1.000000	383843.000000	1772914704.323479
4744.170000	91102.950000	-11539.845000	-24171.705000	0.000000	0.000000	0.000000	0.000000	-35.644991	17.116318	-78.844581	-41.738353	-0.000000	0.000000	-0.000000	-0.000000	-6.454980	5.234180	-6.561800	-0.114380	0.793516	0.596251	-1.000000	-1.000000	-1.000000	-1.000000	-1.000000	-1.000000	-1.000000	11.241379	0.000000	-1.000000	-1.000000	383844.000000	1772914704.329292
4797.180000	91089.945000	-11462.805000	-24038.955000	0.000000	0.000000	0.000000	0.000000	-17.644045	0.972555	-18.343211	-15.265868	-0.000000	0.000000	-0.000000	-0.000000	-6.454980	5.234180	-6.561800	-0.114380	0.793516	0.596251	-1.000000	-1.000000	-1.000000	-1.000000	-1.000000	-1.000000	-1.000000	11.241379	0.000000	-1.000000	-1.000000	383845.000000	1772914704.329294
4822.110000	91087.155000	-11415.960000	-23991.480000	0.000000	0.000000	0.000000	0.000000	4.240847	-15.230416	53.658354	21.813770	-0.000000	0.000000	-0.000000	-0.000000	-22.203300	12.238520	-0.030520	-0.118103	0.826902	0.586058	-1.000000	-1.000000	-1.000000	-1.000000	-1.000000	-1.000000	-1.000000	11.241379	0.000000	-1.000000	-1.000000	383846.000000	1772914704.331561
4894.155000	91103.715000	-11244.600000	-23901.345000	0.000000	0.000000	0.000000	0.000000	28.083209	-22.147878	107.802761	62.395067	-0.000000	0.000000	-0.000000	-0.000000	-22.203300	12.238520	-0.030520	-0.118103	0.826902	0.586058	-1.000000	-1.000000	-1.000000	-1.000000	-1.000000	-1.000000	-1.000000	11.241379	0.000000	-1.000000	-1.000000	383847.000000	1772914704.331563
4913.415000	91127.070000	-11127.780000	-23805.810000	0.000000	0.000000	0.000000	0.000000	49.686524	-15.636230	131.010787	90.621156	-0.000000	0.000000	-0.000000	-0.000000	-22.203300	12.238520	-0.030520	-0.118103	0.826902	0.586058	-1.000000	-1.000000	-1.000000	-1.000000	-1.000000	-1.000000	-1.000000	11.241379	0.000000	-1.000000	-1.000000	383848.000000	1772914704.335624
4791.645000	91143.540000	-11121.480000	-23820.795000	0.000000	0.000000	0.000000	0.000000	56.200334	0.489155	117.890236	90.333445	-0.000000	0.000000	-0.000000	-0.000000	-22.203300	12.238520	-0.030520	-0.118103	0.826902	0.586058	-1.000000	-1.000000	-1.000000	-1.000000	-1.000000	-1.000000	-1.000000	11.241379	0.000000	-1.000000	-1.000000	383849.000000	1772914704.335627
4805.235000	91151.550000	-11095.425000	-23877.585000	0.000000	0.000000	0.000000	0.000000	35.657771	16.748932	66.431269	53.778682	-0.000000	0.000000	-0.000000	-0.000000	-22.203300	12.238520	-0.030520	-0.118103	0.826902	0.586058	-1.000000	-1.000000	-1.000000	-1.000000	-1.000000	-1.000000	-1.000000	11.241379	0.000000	-1.000000	-1.000000	383850.000000	1772914704.339481
4913.820000	91150.245000	-11009.745000	-23897.970000	0.000000	0.000000	0.000000	0.000000	-2.277462	23.880874	-10.556941	-11.252033	-0.000000	0.000000	-0.000000	-0.000000	-22.203300	12.238520	-0.030520	-0.118103	0.826902	0.586058	-1.000000	-1.000000	-1.000000	-1.000000	-1.000000	-1.000000	-1.000000	11.379310	0.000000	-1.000000	-1.000000	383851.000000	1772914704.339484
4967.820000	91129.005000	-11133.990000	-23835.420000	0.000000	0.000000	0.000000	0.000000	-28.523714	18.058516	-84.835073	-76.457450	-0.000000	0.000000	-0.000000	-0.000000	-22.203300	12.238520	-0.030520	-0.118103	0.826902	0.586058	-1.000000	-1.000000	-1.000000	-1.000000	-1.000000	-1.000000	-1.000000	11.379310	0.000000	-1.000000	-1.000000	383852.000000	1772914704.343415
5025.375000	91107.630000	-11326.815000	-23776.155000	0.000000	0.000000	0.000000	0.000000	-26.369257	2.170862	-136.741582	-106.860854	-0.000000	0.000000	-0.000000	-0.000000	-22.203300	12.238520	-0.030520	-0.118103	0.826902	0.586058	-1.000000	-1.000000	-1.000000	-1.000000	-1.000000	-1.000000	-1.000000	11.379310	0.000000	-1.000000	-1.000000	383853.000000	1772914704.343417
5101.650000	91100.160000	-11380.050000	-23685.165000	0.000000	0.000000	0.000000	0.000000	-5.295357	-15.816393	-160.950560	-86.702507	-0.000000	0.000000	-0.000000	-0.000000	-22.203300	12.238520	-0.030520	-0.118103	0.826902	0.586058	-1.000000	-1.000000	-1.000000	-1.000000	-1.000000	-1.000000	-1.000000	11.379310	0.000000	-1.000000	-1.000000	383854.000000	1772914704.347401
4938.570000	91096.740000	-11542.770000	-23897.160000	0.000000	0.000000	0.000000	0.000000	11.349500	-26.573645	-150.783107	-35.185529	-0.000000	0.000000	-0.000000	-0.000000	-22.203300	12.238520	-0.030520	-0.118103	0.826902	0.586058	-1.000000	-1.000000	-1.000000	-1.000000	-1.000000	-1.000000	-1.000000	11.379310	0.000000	-1.000000	-1.000000	383855.000000	1772914704.347403
4856.895000	91111.725000	-11472.840000	-24181.920000	0.000000	0.000000	0.000000	0.000000	1.661474	-24.485388	-99.856108	1.640480	-0.000000	0.000000	-0.000000	-0.000000	-27.330660	16.236640	-4.990020	-0.118042	0.824583	0.597655	-1.000000	-1.000000	-1.000000	-1.000000	-1.000000	-1.000000	-1.000000	11.379310	0.000000	-1.000000	-1.000000	383856.000000	1772914704.351488
4950.855000	91137.825000	-11375.550000	-24024.510000	0.000000	0.000000	0.000000	0.000000	-31.841134	-10.428160	-11.710598	-3.056076	-0.000000	0.000000	-0.000000	-0.000000	-27.330660	16.236640	-4.990020	-0.118042	0.824583	0.597655	-1.000000	-1.000000	-1.000000	-1.000000	-1.000000	-1.000000	-1.000000	11.379310	0.000000	-1.000000	-1.000000	383857.000000	1772914704.351490
4978.305000	91158.885000	-11063.745000	-23893.470000	0.000000	0.000000	0.000000	0.000000	-56.225178	9.139239	98.162169	-17.835286	-0.000000	0.000000	-0.000000	-0.000000	-27.330660	16.236640	-4.990020	-0.118042	0.824583	0.597655	-1.000000	-1.000000	-1.000000	-1.000000	-1.000000	-1.000000	-1.000000	11.379310	0.000000	-1.000000	-1.000000	383858.000000	1772914704.355469
5006.880000	91161.855000	-10886.265000	-23794.065000	0.000000	0.000000	0.000000	0.000000	-44.476108	24.899016	200.238400	5.093735	-0.000000	0.000000	-0.000000	-0.000000	-27.330660	16.236640	-4.990020	-0.118042	0.824583	0.597655	-1.000000	-1.000000	-1.000000	-1.000000	-1.000000	-1.000000	-1.000000	11.379310	0.000000	-1.000000	-1.000000	383859.000000	1772914704.355471
4968.945000	91133.280000	-11210.265000	-23767.155000	0.000000	0.000000	0.000000	0.000000	-4.884766	28.437533	244.653646	63.866912	-0.000000	0.000000	-0.000000	-0.000000	-27.330660	16.236640	-4.990020	-0.118042	0.824583	0.597655	-1.000000	-1.000000	-1.000000	-1.000000	-1.000000	-1.000000	-1.000000	11.379310	0.000000	-1.000000	-1.000000	383860.000000	1772914704.359483
4883.760000	91101.375000	-11554.695000	-23843.430000	0.000000	0.000000	0.000000	0.000000	31.395071	16.662741	176.657957	110.537899	-0.000000	0.000000	-0.000000	-0.000000	-27.330660	16.236640	-4.990020	-0.118042	0.824583	0.597655	-1.000000	-1.000000	-1.000000	-1.000000	-1.000000	-1.000000	-1.000000	11.379310	0.000000	-1.000000	-1.000000	383861.000000	1772914704.359491
4785.165000	91078.605000	-11786.715000	-23953.095000	0.000000	0.000000	0.000000	0.000000	38.839383	-5.101597	-2.193475	100.695458	-0.000000	0.000000	-0.000000	-0.000000	-27.330660	16.236640	-4.990020	-0.118042	0.824583	0.597655	-1.000000	-1.000000	-1.000000	-1.000000	-1.000000	-1.000000	-1.000000	11.379310	0.000000	-1.000000	-1.000000	383862.000000	1772914704.363489
4799.925000	91084.680000	-11585.025000	-23997.645000	0.000000	0.000000	0.000000	0.000000	17.529115	-24.726759	-195.745244	31.763677	-0.000000	0.000000	-0.000000	-0.000000	-27.330660	16.236640	-4.990020	-0.118042	0.824583	0.597655	-1.000000	-1.000000	-1.000000	-1.000000	-1.000000	-1.000000	-1.000000	11.379310	0.000000	-1.000000	-1.000000	383863.000000	1772914704.363493
4623.210000	91096.290000	-11447.865000	-24203.250000	0.000000	0.000000	0.000000	0.000000	-11.525447	-30.471420	-273.975582	-58.445971	-0.000000	0.000000	-0.000000	-0.000000	-27.330660	16.236640	-4.990020	-0.118042	0.824583	0.597655	-1.000000	-1.000000	-1.000000	-1.000000	-1.000000	-1.000000	-1.000000	11.379310	0.000000	-1.000000	-1.000000	383864.000000	1772914704.367443
4531.680000	91116.315000	-11351.565000	-24294.285000	0.000000	0.000000	0.000000	0.000000	-31.052055	-18.942665	-185.278249	-125.197227	-0.000000	0.000000	-0.000000	-0.000000	-27.330660	16.236640	-4.990020	-0.118042	0.824583	0.597655	-1.000000	-1.000000	-1.000000	-1.000000	-1.000000	-1.000000	-1.000000	11.379310	0.000000	-1.000000	-1.000000	383865.000000	1772914704.367448
4775.220000	91144.980000	-11151.900000	-24022.755000	0.000000	0.000000	0.000000	0.000000	-30.155677	3.128640	4.415645	-134.452487	-0.000000	0.000000	-0.000000	-0.000000	-4.806900	21.516600	-0.350980	-0.109192	0.811521	0.614806	-1.000000	-1.000000	-1.000000	-1.000000	-1.000000	-1.000000	-1.000000	11.379310	0.000000	-1.000000	-1.000000	383866.000000	1772914704.371494
5110.785000	91155.195000	-11130.030000	-23701.680000	0.000000	0.000000	0.000000	0.000000	8.913670	23.946041	177.752531	-64.434637	-0.000000	0.000000	-0.000000	-0.000000	-4.806900	21.516600	-0.350980	-0.109192	0.811521	0.614806	-1.000000	-1.000000	-1.000000	-1.000000	-1.000000	-1.000000	-1.000000	11.379310	0.000000	-1.000000	-1.000000	383867.000000	1772914704.371497
5154.840000	91133.685000	-11227.905000	-23653.485000	0.000000	0.000000	0.000000	0.000000	84.890654	32.684877	243.731997	65.389274	-0.000000	0.000000	-0.000000	-0.000000	-4.806900	21.516600	-0.350980	-0.109192	0.811521	0.614806	-1.000000	-1.000000	-1.000000	-1.000000	-1.000000	-1.000000	-1.000000	11.379310	0.000000	-1.000000	-1.000000	383868.000000	1772914704.375473
4823.955000	91093.680000	-11507.265000	-23832.990000	0.000000	0.000000	0.000000	0.000000	141.705891	23.934399	173.102292	174.867164	-0.000000	0.000000	-0.000000	-0.000000	-4.806900	21.516600	-0.350980	-0.109192	0.811521	0.614806	-1.000000	-1.000000	-1.000000	-1.000000	-1.000000	-1.000000	-1.000000	11.379310	0.000000	-1.000000	-1.000000	383869.000000	1772914704.375477
4686.750000	91059.210000	-11829.600000	-24172.740000	0.000000	0.000000	0.000000	0.000000	107.731643	1.069359	2.947589	174.594958	-0.000000	0.000000	-0.000000	-0.000000	-4.806900	21.516600	-0.350980	-0.109192	0.811521	0.614806	-1.000000	-1.000000	-1.000000	-1.000000	-1.000000	-1.000000	-1.000000	11.379310	0.000000	-1.000000	-1.000000	383870.000000	1772914704.379507
5062.770000	91080.495000	-11359.845000	-24137.505000	0.000000	0.000000	0.000000	0.000000	-9.183784	-23.401223	-169.997490	51.284987	-0.000000	0.000000	-0.000000	-0.000000	-4.806900	21.516600	-0.350980	-0.109192	0.811521	0.614806	-1.000000	-1.000000	-1.000000	-1.000000	-1.000000	-1.000000	-1.000000	11.379310	0.000000	-1.000000	-1.000000	383871.000000	1772914704.379510
5358.330000	91104.210000	-11348.820000	-23939.820000	0.000000	0.000000	0.000000	0.000000	-107.826854	-33.972402	-230.326458	-104.517961	-0.000000	0.000000	-0.000000	-0.000000	-4.806900	21.516600	-0.350980	-0.109192	0.811521	0.614806	-1.000000	-1.000000	-1.000000	-1.000000	-1.000000	-1.000000	-1.000000	11.379310	0.000000	-1.000000	-1.000000	383872.000000	1772914704.383514
5183.370000	91105.605000	-11966.625000	-23858.640000	0.000000	0.000000	0.000000	0.000000	-111.301682	-23.948928	-154.161084	-175.702850	-0.000000	0.000000	-0.000000	-0.000000	-4.806900	21.516600	-0.350980	-0.109192	0.811521	0.614806	-1.000000	-1.000000	-1.000000	-1.000000	-1.000000	-1.000000	-1.000000	11.379310	0.000000	-1.000000	-1.000000	383873.000000	1772914704.383517
4774.770000	91103.850000	-12232.620000	-24083.640000	0.000000	0.000000	0.000000	0.000000	-59.585588	-1.549267	-44.395015	-130.139949	-0.000000	0.000000	-0.000000	-0.000000	-4.806900	21.516600	-0.350980	-0.109192	0.811521	0.614806	-1.000000	-1.000000	-1.000000	-1.000000	-1.000000	-1.000000	-1.000000	11.379310	0.000000	-1.000000	-1.000000	383874.000000	1772914704.387477
4893.705000	91135.035000	-11577.465000	-23952.600000	0.000000	0.000000	0.000000	0.000000	-37.817891	18.604683	19.202866	-31.567253	-0.000000	0.000000	-0.000000	-0.000000	-4.806900	21.516600	-0.350980	-0.109192	0.811521	0.614806	-1.000000	-1.000000	-1.000000	-1.000000	-1.000000	-1.000000	-1.000000	11.379310	0.000000	-1.000000	-1.000000	383875.000000	1772914704.387480
5140.170000	91157.940000	-10703.970000	-23679.450000	0.000000	0.000000	0.000000	0.000000	-51.756624	27.938068	87.826003	53.966845	-0.000000	0.000000	-0.000000	-0.000000	35.845740	15.946700	40.255880	-0.120666	0.855467	0.672301	-1.000000	-1.000000	-1.000000	-1.000000	-1.000000	-1.000000	-1.000000	11.379310	0.000000	-1.000000	-1.000000	383876.000000	1772914704.391417
5013.270000	91140.660000	-10422.180000	-23564.520000	0.000000	0.000000	0.000000	0.000000	-43.930488	25.499890	223.838373	109.910491	-0.000000	0.000000	-0.000000	-0.000000	35.845740	15.946700	40.255880	-0.120666	0.855467	0.672301	-1.000000	-1.000000	-1.000000	-1.000000	-1.000000	-1.000000	-1.000000	11.379310	0.000000	-1.000000	-1.000000	383877.000000	1772914704.391420
4787.505000	91093.770000	-10859.265000	-23814.765000	0.000000	0.000000	0.000000	0.000000	-1.766522	12.455384	346.391345	127.258452	-0.000000	0.000000	-0.000000	-0.000000	35.845740	15.946700	40.255880	-0.120666	0.855467	0.672301	-1.000000	-1.000000	-1.000000	-1.000000	-1.000000	-1.000000	-1.000000	11.379310	0.000000	-1.000000	-1.000000	383878.000000	1772914704.395230
4672.980000	91050.795000	-11677.770000	-24358.095000	0.000000	0.000000	0.000000	0.000000	30.615385	-8.477352	284.844326	74.356795	-0.000000	0.000000	-0.000000	-0.000000	35.845740	15.946700	40.255880	-0.120666	0.855467	0.672301	-1.000000	-1.000000	-1.000000	-1.000000	-1.000000	-1.000000	-1.000000	11.379310	0.000000	-1.000000	-1.000000	383879.000000	1772914704.395233
4673.160000	91050.255000	-11903.355000	-24390.405000	0.000000	0.000000	0.000000	0.000000	28.342751	-29.173430	-15.304041	-53.999508	-0.000000	0.000000	-0.000000	-0.000000	35.845740	15.946700	40.255880	-0.120666	0.855467	0.672301	-1.000000	-1.000000	-1.000000	-1.000000	-1.000000	-1.000000	-1.000000	11.379310	0.000000	-1.000000	-1.000000	383880.000000	1772914704.399620
4954.680000	91084.365000	-11679.030000	-24091.290000	0.000000	0.000000	0.000000	0.000000	18.382139	-37.141135	-382.220481	-178.454306	-0.000000	0.000000	-0.000000	-0.000000	35.845740	15.946700	40.255880	-0.120666	0.855467	0.672301	-1.000000	-1.000000	-1.000000	-1.000000	-1.000000	-1.000000	-1.000000	11.379310	0.000000	-1.000000	-1.000000	383881.000000	1772914704.399624
5048.505000	91116.945000	-11453.490000	-23809.680000	0.000000	0.000000	0.000000	0.000000	39.810458	-24.501105	-551.429943	-184.873108	-0.000000	0.000000	-0.000000	-0.000000	35.845740	15.946700	40.255880	-0.120666	0.855467	0.672301	-1.000000	-1.000000	-1.000000	-1.000000	-1.000000	-1.000000	-1.000000	11.379310	0.000000	-1.000000	-1.000000	383882.000000	1772914704.410067
4955.175000	91133.460000	-11255.580000	-23739.345000	0.000000	0.000000	0.000000	0.000000	86.706442	3.424889	-404.063806	-48.054274	-0.000000	0.000000	-0.000000	-0.000000	35.845740	15.946700	40.255880	-0.120666	0.855467	0.672301	-1.000000	-1.000000	-1.000000	-1.000000	-1.000000	-1.000000	-1.000000	11.379310	0.000000	-1.000000	-1.000000	383883.000000	1772914704.410071
4739.760000	91118.610000	-11237.850000	-24152.490000	0.000000	0.000000	0.000000	0.000000	104.647108	30.029046	-51.049647	126.472508	-0.000000	0.000000	-0.000000	-0.000000	35.845740	15.946700	40.255880	-0.120666	0.855467	0.672301	-1.000000	-1.000000	-1.000000	-1.000000	-1.000000	-1.000000	-1.000000	11.379310	0.000000	-1.000000	-1.000000	383884.000000	1772914704.410076
4654.215000	91088.280000	-11351.745000	-24245.865000	0.000000	0.000000	0.000000	0.000000	53.135740	38.899557	280.909818	197.958639	-0.000000	0.000000	-0.000000	-0.000000	35.845740	15.946700	40.255880	-0.120666	0.855467	0.672301	-1.000000	-1.000000	-1.000000	-1.000000	-1.000000	-1.000000	-1.000000	11.379310	0.000000	-1.000000	-1.000000	383885.000000	1772914704.410078
4887.360000	91070.820000	-11300.805000	-23999.490000	0.000000	0.000000	0.000000	0.000000	-39.380475	25.352498	419.653737	130.063972	-0.000000	0.000000	-0.000000	-0.000000	44.910180	-18.083100	76.498380	-0.159179	0.910581	0.706480	-1.000000	-1.000000	-1.000000	-1.000000	-1.000000	-1.000000	-1.000000	11.379310	0.000000	-1.000000	-1.000000	383886.000000	1772914704.413293
5113.485000	91063.170000	-11296.530000	-23884.830000	0.000000	0.000000	0.000000	0.000000	-95.477963	-0.719450	342.473491	13.472583	-0.000000	0.000000	-0.000000	-0.000000	44.910180	-18.083100	76.498380	-0.159179	0.910581	0.706480	-1.000000	-1.000000	-1.000000	-1.000000	-1.000000	-1.000000	-1.000000	11.379310	0.000000	-1.000000	-1.000000	383887.000000	1772914704.413296
4925.970000	91053.990000	-11572.380000	-24170.220000	0.000000	0.000000	0.000000	0.000000	-73.798240	-23.017094	140.293470	-58.618140	-0.000000	0.000000	-0.000000	-0.000000	44.910180	-18.083100	76.498380	-0.159179	0.910581	0.706480	-1.000000	-1.000000	-1.000000	-1.000000	-1.000000	-1.000000	-1.000000	11.379310	0.000000	-1.000000	-1.000000	383888.000000	1772914704.415555
5076.720000	91080.990000	-11244.465000	-24121.665000	0.000000	0.000000	0.000000	0.000000	-11.997491	-29.947603	-69.123390	-77.574864	-0.000000	0.000000	-0.000000	-0.000000	44.910180	-18.083100	76.498380	-0.159179	0.910581	0.706480	-1.000000	-1.000000	-1.000000	-1.000000	-1.000000	-1.000000	-1.000000	11.379310	0.000000	-1.000000	-1.000000	383889.000000	1772914704.415558
5176.170000	91107.135000	-11107.080000	-23948.190000	0.000000	0.000000	0.000000	0.000000	34.264952	-19.473499	-186.479726	-68.159886	-0.000000	0.000000	-0.000000	-0.000000	44.910180	-18.083100	76.498380	-0.159179	0.910581	0.706480	-1.000000	-1.000000	-1.000000	-1.000000	-1.000000	-1.000000	-1.000000	11.379310	0.000000	-1.000000	-1.000000	383890.000000	1772914704.421658
5094.450000	91105.605000	-11643.570000	-24046.920000	0.000000	0.000000	0.000000	0.000000	45.208757	1.097448	-184.027618	-37.564023	-0.000000	0.000000	-0.000000	-0.000000	44.910180	-18.083100	76.498380	-0.159179	0.910581	0.706480	-1.000000	-1.000000	-1.000000	-1.000000	-1.000000	-1.000000	-1.000000	11.379310	0.000000	-1.000000	-1.000000	383891.000000	1772914704.421660
5161.050000	91101.240000	-11706.030000	-24176.970000	0.000000	0.000000	0.000000	0.000000	23.907616	18.807775	-128.820464	-1.088273	-0.000000	0.000000	-0.000000	-0.000000	44.910180	-18.083100	76.498380	-0.159179	0.910581	0.706480	-1.000000	-1.000000	-1.000000	-1.000000	-1.000000	-1.000000	-1.000000	11.379310	0.000000	-1.000000	-1.000000	383892.000000	1772914704.424588
5204.430000	91088.730000	-11613.465000	-23995.890000	0.000000	0.000000	0.000000	0.000000	-13.422833	23.410339	-84.697612	17.634602	-0.000000	0.000000	-0.000000	-0.000000	44.910180	-18.083100	76.498380	-0.159179	0.910581	0.706480	-1.000000	-1.000000	-1.000000	-1.000000	-1.000000	-1.000000	-1.000000	11.379310	0.000000	-1.000000	-1.000000	383893.000000	1772914704.424591
5045.400000	91056.870000	-11665.845000	-23930.820000	0.000000	0.000000	0.000000	0.000000	-45.223810	13.599139	-43.924790	22.129484	-0.000000	0.000000	-0.000000	-0.000000	44.910180	-18.083100	76.498380	-0.159179	0.910581	0.706480	-1.000000	-1.000000	-1.000000	-1.000000	-1.000000	-1.000000	-1.000000	11.379310	0.000000	-1.000000	-1.000000	383894.000000	1772914704.427529
4859.505000	91015.695000	-12114.045000	-24283.485000	0.000000	0.000000	0.000000	0.000000	-66.454559	-4.480840	6.250618	22.609966	-0.000000	0.000000	-0.000000	-0.000000	44.910180	-18.083100	76.498380	-0.159179	0.910581	0.706480	-1.000000	-1.000000	-1.000000	-1.000000	-1.000000	-1.000000	-1.000000	11.379310	0.000000	-1.000000	-1.000000	383895.000000	1772914704.427532
4637.025000	90994.230000	-12289.905000	-24449.310000	0.000000	0.000000	0.000000	0.000000	-83.900523	-21.648863	37.520338	2.846268	-0.000000	0.000000	-0.000000	-0.000000	14.115500	-43.994580	113.015560	-0.171691	0.967039	0.717527	-1.000000	-1.000000	-1.000000	-1.000000	-1.000000	-1.000000	-1.000000	11.379310	0.000000	-1.000000	-1.000000	383896.000000	1772914704.431502
4435.110000	91012.860000	-11850.165000	-24361.605000	0.000000	0.000000	0.000000	0.000000	-94.879833	-28.632889	42.345297	-40.639611	-0.000000	0.000000	-0.000000	-0.000000	14.115500	-43.994580	113.015560	-0.171691	0.967039	0.717527	-1.000000	-1.000000	-1.000000	-1.000000	-1.000000	-1.000000	-1.000000	11.379310	0.000000	-1.000000	-1.000000	383897.000000	1772914704.431504
4678.380000	91054.170000	-11509.830000	-24217.245000	0.000000	0.000000	0.000000	0.000000	-78.393097	-19.432444	70.524015	-65.030235	-0.000000	0.000000	-0.000000	-0.000000	14.115500	-43.994580	113.015560	-0.171691	0.967039	0.717527	-1.000000	-1.000000	-1.000000	-1.000000	-1.000000	-1.000000	-1.000000	11.379310	0.000000	-1.000000	-1.000000	383898.000000	1772914704.435552
4718.385000	91075.995000	-11529.630000	-24282.000000	0.000000	0.000000	0.000000	0.000000	-9.340505	3.648192	146.703646	-32.776281	-0.000000	0.000000	-0.000000	-0.000000	14.115500	-43.994580	113.015560	-0.171691	0.967039	0.717527	-1.000000	-1.000000	-1.000000	-1.000000	-1.000000	-1.000000	-1.000000	11.379310	0.000000	-1.000000	-1.000000	383899.000000	1772914704.435555
4861.305000	91085.355000	-11581.290000	-24207.345000	0.000000	0.000000	0.000000	0.000000	101.914256	28.520070	207.442118	36.769592	-0.000000	0.000000	-0.000000	-0.000000	14.115500	-43.994580	113.015560	-0.171691	0.967039	0.717527	-1.000000	-1.000000	-1.000000	-1.000000	-1.000000	-1.000000	-1.000000	11.379310	0.000000	-1.000000	-1.000000	383900.000000	1772914704.439416
4955.310000	91084.185000	-11442.150000	-24094.260000	0.000000	0.000000	0.000000	0.000000	200.756985	40.497246	176.143238	95.447929	-0.000000	0.000000	-0.000000	-0.000000	14.115500	-43.994580	113.015560	-0.171691	0.967039	0.717527	-1.000000	-1.000000	-1.000000	-1.000000	-1.000000	-1.000000	-1.000000	11.379310	0.000000	-1.000000	-1.000000	383901.000000	1772914704.439419
4959.495000	91074.330000	-11160.090000	-24019.920000	0.000000	0.000000	0.000000	0.000000	230.681843	32.624109	60.069443	114.841895	-0.000000	0.000000	-0.000000	-0.000000	14.115500	-43.994580	113.015560	-0.171691	0.967039	0.717527	-1.000000	-1.000000	-1.000000	-1.000000	-1.000000	-1.000000	-1.000000	11.379310	0.000000	-1.000000	-1.000000	383902.000000	1772914704.443412
5015.250000	91058.670000	-11139.795000	-23997.015000	0.000000	0.000000	0.000000	0.000000	171.610419	9.428857	-66.891613	91.890230	-0.000000	0.000000	-0.000000	-0.000000	14.115500	-43.994580	113.015560	-0.171691	0.967039	0.717527	-1.000000	-1.000000	-1.000000	-1.000000	-1.000000	-1.000000	-1.000000	11.379310	0.000000	-1.000000	-1.000000	383903.000000	1772914704.443415
4970.565000	91032.660000	-11622.150000	-24151.590000	0.000000	0.000000	0.000000	0.000000	49.128357	-17.468211	-157.873443	33.736983	-0.000000	0.000000	-0.000000	-0.000000	14.115500	-43.994580	113.015560	-0.171691	0.967039	0.717527	-1.000000	-1.000000	-1.000000	-1.000000	-1.000000	-1.000000	-1.000000	11.379310	0.000000	-1.000000	-1.000000	383904.000000	1772914704.447549
4964.400000	91036.710000	-11716.875000	-24283.215000	0.000000	0.000000	0.000000	0.000000	-83.913011	-36.110699	-221.811968	-47.207521	-0.000000	0.000000	-0.000000	-0.000000	14.115500	-43.994580	113.015560	-0.171691	0.967039	0.717527	-1.000000	-1.000000	-1.000000	-1.000000	-1.000000	-1.000000	-1.000000	11.379310	0.000000	-1.000000	-1.000000	383905.000000	1772914704.447552
4906.215000	91058.535000	-11588.445000	-24229.890000	0.000000	0.000000	0.000000	0.000000	-177.695102	-38.540609	-253.849314	-123.458930	-0.000000	0.000000	-0.000000	-0.000000	-118.402340	-68.105380	85.715420	-0.177978	0.940183	0.698179	-1.000000	-1.000000	-1.000000	-1.000000	-1.000000	-1.000000	-1.000000	11.379310	0.000000	-1.000000	-1.000000	383906.000000	1772914704.451522
4984.785000	91090.080000	-11311.965000	-24002.910000	0.000000	0.000000	0.000000	0.000000	-203.774925	-23.575296	-206.513514	-150.179347	-0.000000	0.000000	-0.000000	-0.000000	-118.402340	-68.105380	85.715420	-0.177978	0.940183	0.698179	-1.000000	-1.000000	-1.000000	-1.000000	-1.000000	-1.000000	-1.000000	11.379310	0.000000	-1.000000	-1.000000	383907.000000	1772914704.451525
4949.550000	91092.825000	-11317.230000	-24130.530000	0.000000	0.000000	0.000000	0.000000	-160.907473	1.320804	-62.127472	-102.164388	-0.000000	0.000000	-0.000000	-0.000000	-118.402340	-68.105380	85.715420	-0.177978	0.940183	0.698179	-1.000000	-1.000000	-1.000000	-1.000000	-1.000000	-1.000000	-1.000000	11.379310	0.000000	-1.000000	-1.000000	383908.000000	1772914704.455437
4905.585000	91076.535000	-11546.280000	-24401.970000	0.000000	0.000000	0.000000	0.000000	-76.062632	22.523111	110.459129	-16.748189	-0.000000	0.000000	-0.000000	-0.000000	-118.402340	-68.105380	85.715420	-0.177978	0.940183	0.698179	-1.000000	-1.000000	-1.000000	-1.000000	-1.000000	-1.000000	-1.000000	11.379310	0.000000	-1.000000	-1.000000	383909.000000	1772914704.455440
4672.980000	91041.660000	-11760.345000	-24715.620000	0.000000	0.000000	0.000000	0.000000	5.324863	28.184102	203.715700	33.134964	-0.000000	0.000000	-0.000000	-0.000000	-118.402340	-68.105380	85.715420	-0.177978	0.940183	0.698179	-1.000000	-1.000000	-1.000000	-1.000000	-1.000000	-1.000000	-1.000000	11.379310	0.000000	-1.000000	-1.000000	383910.000000	1772914704.459450
4683.690000	91020.960000	-11847.195000	-24581.115000	0.000000	0.000000	0.000000	0.000000	47.847552	16.301888	170.772338	20.618988	-0.000000	0.000000	-0.000000	-0.000000	-118.402340	-68.105380	85.715420	-0.177978	0.940183	0.698179	-1.000000	-1.000000	-1.000000	-1.000000	-1.000000	-1.000000	-1.000000	11.379310	0.000000	-1.000000	-1.000000	383911.000000	1772914704.459453
5017.005000	91020.735000	-11781.495000	-24341.400000	0.000000	0.000000	0.000000	0.000000	59.530490	-3.742325	62.933902	-2.782857	-0.000000	0.000000	-0.000000	-0.000000	-118.402340	-68.105380	85.715420	-0.177978	0.940183	0.698179	-1.000000	-1.000000	-1.000000	-1.000000	-1.000000	-1.000000	-1.000000	11.379310	0.000000	-1.000000	-1.000000	383912.000000	1772914704.463405
4843.080000	91018.845000	-11762.190000	-24380.955000	0.000000	0.000000	0.000000	0.000000	74.672776	-18.158088	-27.354764	23.374074	-0.000000	0.000000	-0.000000	-0.000000	-118.402340	-68.105380	85.715420	-0.177978	0.940183	0.698179	-1.000000	-1.000000	-1.000000	-1.000000	-1.000000	-1.000000	-1.000000	11.379310	0.000000	-1.000000	-1.000000	383913.000000	1772914704.463408
4892.580000	91044.855000	-11454.030000	-24322.320000	0.000000	0.000000	0.000000	0.000000	94.320625	-18.484518	-42.160071	89.082687	-0.000000	0.000000	-0.000000	-0.000000	-118.402340	-68.105380	85.715420	-0.177978	0.940183	0.698179	-1.000000	-1.000000	-1.000000	-1.000000	-1.000000	-1.000000	-1.000000	11.379310	0.000000	-1.000000	-1.000000	383914.000000	1772914704.467514
5037.480000	91072.530000	-11504.430000	-24225.300000	0.000000	0.000000	0.000000	0.000000	92.558370	-5.552281	12.534570	136.541010	-0.000000	0.000000	-0.000000	-0.000000	-118.402340	-68.105380	85.715420	-0.177978	0.940183	0.698179	-1.000000	-1.000000	-1.000000	-1.000000	-1.000000	-1.000000	-1.000000	11.379310	0.000000	-1.000000	-1.000000	383915.000000	1772914704.467517
4995.180000	91084.590000	-11570.355000	-24374.655000	0.000000	0.000000	0.000000	0.000000	64.036787	12.540357	77.140772	126.015424	0.000000	0.000000	-0.000000	-0.000000	-147.960960	-72.759680	1.983800	-0.163452	0.779356	0.523253	-1.000000	-1.000000	-1.000000	-1.000000	-1.000000	-1.000000	-1.000000	11.379310	0.000000	-1.000000	-1.000000	383916.000000	1772914704.471533
5025.195000	91080.135000	-11629.890000	-24427.125000	0.000000	0.000000	0.000000	0.000000	19.664106	24.785569	86.320527	54.405124	0.000000	0.000000	-0.000000	-0.000000	-147.960960	-72.759680	1.983800	-0.163452	0.779356	0.523253	-1.000000	-1.000000	-1.000000	-1.000000	-1.000000	-1.000000	-1.000000	11.379310	0.000000	-1.000000	-1.000000	383917.000000	1772914704.471535
5040.405000	91054.710000	-11680.695000	-24438.915000	0.000000	0.000000	0.000000	0.000000	-28.654646	23.201460	26.690856	-47.484130	0.000000	0.000000	-0.000000	-0.000000	-147.960960	-72.759680	1.983800	-0.163452	0.779356	0.523253	-1.000000	-1.000000	-1.000000	-1.000000	-1.000000	-1.000000	-1.000000	11.379310	0.000000	-1.000000	-1.000000	383918.000000	1772914704.475488
5072.580000	91039.905000	-11382.075000	-24313.095000	0.000000	0.000000	0.000000	0.000000	-65.568599	7.831605	-54.304571	-125.249990	0.000000	0.000000	-0.000000	-0.000000	-147.960960	-72.759680	1.983800	-0.163452	0.779356	0.523253	-1.000000	-1.000000	-1.000000	-1.000000	-1.000000	-1.000000	-1.000000	11.379310	0.000000	-1.000000	-1.000000	383919.000000	1772914704.475492
5162.400000	91039.995000	-10994.085000	-23920.020000	0.000000	0.000000	0.000000	0.000000	-77.410121	-12.642167	-86.239315	-130.065830	0.000000	0.000000	-0.000000	-0.000000	-147.960960	-72.759680	1.983800	-0.163452	0.779356	0.523253	-1.000000	-1.000000	-1.000000	-1.000000	-1.000000	-1.000000	-1.000000	11.379310	0.000000	-1.000000	-1.000000	383920.000000	1772914704.479594
5097.510000	91027.080000	-11216.745000	-24099.390000	0.000000	0.000000	0.000000	0.000000	-62.558327	-26.526134	-43.939403	-58.196830	0.000000	0.000000	-0.000000	-0.000000	-147.960960	-72.759680	1.983800	-0.163452	0.779356	0.523253	-1.000000	-1.000000	-1.000000	-1.000000	-1.000000	-1.000000	-1.000000	11.379310	0.000000	-1.000000	-1.000000	383921.000000	1772914704.479597
4882.860000	91022.940000	-11386.665000	-24443.595000	0.000000	0.000000	0.000000	0.000000	-39.242895	-27.394428	12.978736	23.930710	0.000000	0.000000	-0.000000	-0.000000	-147.960960	-72.759680	1.983800	-0.163452	0.779356	0.523253	-1.000000	-1.000000	-1.000000	-1.000000	-1.000000	-1.000000	-1.000000	11.379310	0.000000	-1.000000	-1.000000	383922.000000	1772914704.483507
4479.570000	91024.740000	-11634.615000	-24703.515000	0.000000	0.000000	0.000000	0.000000	-37.640241	-16.838670	7.245245	32.306150	0.000000	0.000000	-0.000000	-0.000000	-147.960960	-72.759680	1.983800	-0.163452	0.779356	0.523253	-1.000000	-1.000000	-1.000000	-1.000000	-1.000000	-1.000000	-1.000000	11.379310	0.000000	-1.000000	-1.000000	383923.000000	1772914704.483509
4699.485000	91053.855000	-11439.540000	-24543.090000	0.000000	0.000000	0.000000	0.000000	-61.766973	-0.580486	-60.256720	-35.584284	0.000000	0.000000	-0.000000	-0.000000	-147.960960	-72.759680	1.983800	-0.163452	0.779356	0.523253	-1.000000	-1.000000	-1.000000	-1.000000	-1.000000	-1.000000	-1.000000	11.379310	0.000000	-1.000000	-1.000000	383924.000000	1772914704.487501
4769.505000	91062.585000	-11351.070000	-24522.570000	0.000000	0.000000	0.000000	0.000000	-65.506184	15.372766	-112.741594	-94.917968	0.000000	0.000000	-0.000000	-0.000000	-147.960960	-72.759680	1.983800	-0.163452	0.779356	0.523253	-1.000000	-1.000000	-1.000000	-1.000000	-1.000000	-1.000000	-1.000000	11.379310	0.000000	-1.000000	-1.000000	383925.000000	1772914704.487504
4818.105000	91050.975000	-11414.880000	-24547.275000	0.000000	0.000000	0.000000	0.000000	-6.914594	25.057518	-89.216722	-75.764143	0.000000	0.000000	-0.000000	-0.000000	-4.776380	-12.360600	-26.705000	-0.067627	0.548644	0.485717	-1.000000	-1.000000	-1.000000	-1.000000	-1.000000	-1.000000	-1.000000	11.379310	0.000000	-1.000000	-1.000000	383926.000000	1772914704.491524
4953.060000	91040.760000	-11193.570000	-24405.840000	0.000000	0.000000	0.000000	0.000000	92.210844	23.667234	-3.567760	11.035899	0.000000	0.000000	-0.000000	-0.000000	-4.776380	-12.360600	-26.705000	-0.067627	0.548644	0.485717	-1.000000	-1.000000	-1.000000	-1.000000	-1.000000	-1.000000	-1.000000	11.379310	0.000000	-1.000000	-1.000000	383927.000000	1772914704.491528
4959.000000	91028.610000	-10895.940000	-24304.365000	0.000000	0.000000	0.000000	0.000000	171.121750	11.535184	95.123027	109.270560	0.000000	0.000000	-0.000000	-0.000000	-4.776380	-12.360600	-26.705000	-0.067627	0.548644	0.485717	-1.000000	-1.000000	-1.000000	-1.000000	-1.000000	-1.000000	-1.000000	11.379310	0.000000	-1.000000	-1.000000	383928.000000	1772914704.495412
4846.275000	91010.160000	-11105.100000	-24385.725000	0.000000	0.000000	0.000000	0.000000	180.003952	-5.084340	162.327755	165.809872	0.000000	0.000000	-0.000000	-0.000000	-4.776380	-12.360600	-26.705000	-0.067627	0.548644	0.485717	-1.000000	-1.000000	-1.000000	-1.000000	-1.000000	-1.000000	-1.000000	11.379310	0.000000	-1.000000	-1.000000	383929.000000	1772914704.495415
4885.560000	91013.535000	-11244.870000	-24442.380000	0.000000	0.000000	0.000000	0.000000	108.047020	-18.039577	153.708786	148.373948	0.000000	0.000000	-0.000000	-0.000000	-4.776380	-12.360600	-26.705000	-0.067627	0.548644	0.485717	-1.000000	-1.000000	-1.000000	-1.000000	-1.000000	-1.000000	-1.000000	11.379310	0.000000	-1.000000	-1.000000	383930.000000	1772914704.499561
4882.410000	91036.800000	-11257.245000	-24325.470000	0.000000	0.000000	0.000000	0.000000	-6.280004	-21.056575	57.266422	65.379253	0.000000	0.000000	-0.000000	-0.000000	-4.776380	-12.360600	-26.705000	-0.067627	0.548644	0.485717	-1.000000	-1.000000	-1.000000	-1.000000	-1.000000	-1.000000	-1.000000	11.379310	0.000000	-1.000000	-1.000000	383931.000000	1772914704.499564
4835.205000	91057.725000	-11341.530000	-24468.930000	0.000000	0.000000	0.000000	0.000000	-103.472182	-12.408699	-73.542903	-35.431584	0.000000	0.000000	-0.000000	-0.000000	-4.776380	-12.360600	-26.705000	-0.067627	0.548644	0.485717	-1.000000	-1.000000	-1.000000	-1.000000	-1.000000	-1.000000	-1.000000	11.379310	0.000000	-1.000000	-1.000000	383932.000000	1772914704.503600
4874.490000	91070.370000	-11307.285000	-24644.205000	0.000000	0.000000	0.000000	0.000000	-145.552794	3.164147	-161.317638	-111.446090	0.000000	0.000000	-0.000000	-0.000000	-4.776380	-12.360600	-26.705000	-0.067627	0.548644	0.485717	-1.000000	-1.000000	-1.000000	-1.000000	-1.000000	-1.000000	-1.000000	11.379310	0.000000	-1.000000	-1.000000	383933.000000	1772914704.503603
4884.975000	91065.465000	-11339.055000	-24583.635000	0.000000	0.000000	0.000000	0.000000	-127.575797	16.381693	-164.075048	-146.412828	0.000000	0.000000	-0.000000	-0.000000	-4.776380	-12.360600	-26.705000	-0.067627	0.548644	0.485717	-1.000000	-1.000000	-1.000000	-1.000000	-1.000000	-1.000000	-1.000000	11.379310	0.000000	-1.000000	-1.000000	383934.000000	1772914704.507523
4827.150000	91042.785000	-11452.095000	-24652.620000	0.000000	0.000000	0.000000	0.000000	-70.188262	19.065172	-95.157397	-132.572548	0.000000	0.000000	-0.000000	-0.000000	-4.776380	-12.360600	-26.705000	-0.067627	0.548644	0.485717	-1.000000	-1.000000	-1.000000	-1.000000	-1.000000	-1.000000	-1.000000	11.379310	0.000000	-1.000000	-1.000000	383935.000000	1772914704.507526
4780.845000	91021.005000	-11376.630000	-24663.645000	0.000000	0.000000	0.000000	0.000000	-7.979371	9.293779	-2.425094	-73.871035	0.000000	0.000000	-0.000000	-0.000000	100.487100	55.836340	25.591020	-0.006897	0.498290	0.498717	-1.000000	-1.000000	-1.000000	-1.000000	-1.000000	-1.000000	-1.000000	11.379310	0.000000	-1.000000	-1.000000	383936.000000	1772914704.513335
4752.135000	91003.410000	-11357.145000	-24701.085000	0.000000	0.000000	0.000000	0.000000	31.790355	-7.224355	73.438094	3.817855	0.000000	0.000000	-0.000000	-0.000000	100.487100	55.836340	25.591020	-0.006897	0.498290	0.498717	-1.000000	-1.000000	-1.000000	-1.000000	-1.000000	-1.000000	-1.000000	11.379310	0.000000	-1.000000	-1.000000	383937.000000	1772914704.513338
4867.290000	91008.585000	-11242.890000	-24638.895000	0.000000	0.000000	0.000000	0.000000	46.133054	-20.497365	116.664937	69.491078	0.000000	0.000000	-0.000000	-0.000000	100.487100	55.836340	25.591020	-0.006897	0.498290	0.498717	-1.000000	-1.000000	-1.000000	-1.000000	-1.000000	-1.000000	-1.000000	11.379310	0.000000	-1.000000	-1.000000	383938.000000	1772914704.515579
4967.235000	91032.345000	-11106.180000	-24545.205000	0.000000	0.000000	0.000000	0.000000	51.456555	-22.086100	127.631874	106.941896	0.000000	0.000000	-0.000000	-0.000000	100.487100	55.836340	25.591020	-0.006897	0.498290	0.498717	-1.000000	-1.000000	-1.000000	-1.000000	-1.000000	-1.000000	-1.000000	11.379310	0.000000	-1.000000	-1.000000	383939.000000	1772914704.515582
4977.585000	91053.135000	-11180.880000	-24440.895000	0.000000	0.000000	0.000000	0.000000	59.122890	-10.208676	109.731421	116.085380	0.000000	0.000000	-0.000000	-0.000000	100.487100	55.836340	25.591020	-0.006897	0.498290	0.498717	-1.000000	-1.000000	-1.000000	-1.000000	-1.000000	-1.000000	-1.000000	11.379310	0.000000	-1.000000	-1.000000	383940.000000	1772914704.522091
4994.865000	91073.475000	-11129.805000	-24432.795000	0.000000	0.000000	0.000000	0.000000	60.329148	8.732599	62.574325	100.512248	0.000000	0.000000	-0.000000	-0.000000	100.487100	55.836340	25.591020	-0.006897	0.498290	0.498717	-1.000000	-1.000000	-1.000000	-1.000000	-1.000000	-1.000000	-1.000000	11.379310	0.000000	-1.000000	-1.000000	383941.000000	1772914704.522094
4915.575000	91067.670000	-11276.055000	-24702.975000	0.000000	0.000000	0.000000	0.000000	39.750846	23.841482	-7.814068	55.632147	0.000000	0.000000	-0.000000	-0.000000	100.487100	55.836340	25.591020	-0.006897	0.498290	0.498717	-1.000000	-1.000000	-1.000000	-1.000000	-1.000000	-1.000000	-1.000000	11.379310	0.000000	-1.000000	-1.000000	383942.000000	1772914704.525069
4895.235000	91051.965000	-11382.705000	-24718.410000	0.000000	0.000000	0.000000	0.000000	-4.158921	26.174807	-82.930218	-21.316614	0.000000	0.000000	-0.000000	-0.000000	100.487100	55.836340	25.591020	-0.006897	0.498290	0.498717	-1.000000	-1.000000	-1.000000	-1.000000	-1.000000	-1.000000	-1.000000	11.379310	0.000000	-1.000000	-1.000000	383943.000000	1772914704.525072
4946.085000	91034.055000	-11363.805000	-24582.555000	0.000000	0.000000	0.000000	0.000000	-52.269192	14.081420	-136.531823	-100.832817	0.000000	0.000000	-0.000000	-0.000000	100.487100	55.836340	25.591020	-0.006897	0.498290	0.498717	-1.000000	-1.000000	-1.000000	-1.000000	-1.000000	-1.000000	-1.000000	11.379310	0.000000	-1.000000	-1.000000	383944.000000	1772914704.528150
4851.765000	91020.555000	-11169.855000	-24482.070000	0.000000	0.000000	0.000000	0.000000	-78.372809	-5.664535	-138.172482	-129.087324	0.000000	0.000000	-0.000000	-0.000000	100.487100	55.836340	25.591020	-0.006897	0.498290	0.498717	-1.000000	-1.000000	-1.000000	-1.000000	-1.000000	-1.000000	-1.000000	11.379310	0.000000	-1.000000	-1.000000	383945.000000	1772914704.528153
4759.335000	91011.285000	-11258.055000	-24433.785000	0.000000	0.000000	0.000000	0.000000	-74.593887	-22.296917	-76.538021	-84.402375	0.000000	0.000000	-0.000000	-0.000000	96.626320	54.523980	11.841760	-0.017212	0.637572	0.533019	-1.000000	-1.000000	-1.000000	-1.000000	-1.000000	-1.000000	-1.000000	11.379310	0.000000	-1.000000	-1.000000	383946.000000	1772914704.531556
4652.460000	91005.255000	-11539.305000	-24791.940000	0.000000	0.000000	0.000000	0.000000	-53.975278	-27.758056	9.652758	-8.141212	0.000000	0.000000	-0.000000	-0.000000	96.626320	54.523980	11.841760	-0.017212	0.637572	0.533019	-1.000000	-1.000000	-1.000000	-1.000000	-1.000000	-1.000000	-1.000000	11.379310	0.000000	-1.000000	-1.000000	383947.000000	1772914704.531559
4867.560000	91038.825000	-11099.430000	-24638.040000	0.000000	0.000000	0.000000	0.000000	-25.111428	-20.054006	66.585878	36.145175	0.000000	0.000000	-0.000000	-0.000000	96.626320	54.523980	11.841760	-0.017212	0.637572	0.533019	-1.000000	-1.000000	-1.000000	-1.000000	-1.000000	-1.000000	-1.000000	11.379310	0.000000	-1.000000	-1.000000	383948.000000	1772914704.535529
4946.085000	91061.010000	-11031.885000	-24516.270000	0.000000	0.000000	0.000000	0.000000	18.928524	-2.520018	91.240640	35.455760	0.000000	0.000000	-0.000000	-0.000000	96.626320	54.523980	11.841760	-0.017212	0.637572	0.533019	-1.000000	-1.000000	-1.000000	-1.000000	-1.000000	-1.000000	-1.000000	11.379310	0.000000	-1.000000	-1.000000	383949.000000	1772914704.535531
4694.355000	91047.060000	-11302.965000	-24984.135000	0.000000	0.000000	0.000000	0.000000	69.476936	16.652582	99.382072	18.290282	0.000000	0.000000	-0.000000	-0.000000	96.626320	54.523980	11.841760	-0.017212	0.637572	0.533019	-1.000000	-1.000000	-1.000000	-1.000000	-1.000000	-1.000000	-1.000000	11.379310	0.000000	-1.000000	-1.000000	383950.000000	1772914704.539564
4760.415000	91041.390000	-11291.445000	-24867.045000	0.000000	0.000000	0.000000	0.000000	89.743737	26.790632	73.371262	-5.796917	0.000000	0.000000	-0.000000	-0.000000	96.626320	54.523980	11.841760	-0.017212	0.637572	0.533019	-1.000000	-1.000000	-1.000000	-1.000000	-1.000000	-1.000000	-1.000000	11.379310	0.000000	-1.000000	-1.000000	383951.000000	1772914704.539566
4741.470000	91022.670000	-11422.170000	-24793.380000	0.000000	0.000000	0.000000	0.000000	63.140012	22.172572	5.462167	-27.512462	0.000000	0.000000	-0.000000	-0.000000	96.626320	54.523980	11.841760	-0.017212	0.637572	0.533019	-1.000000	-1.000000	-1.000000	-1.000000	-1.000000	-1.000000	-1.000000	11.379310	0.000000	-1.000000	-1.000000	383952.000000	1772914704.543509
4722.705000	91002.600000	-11426.040000	-24808.410000	0.000000	0.000000	0.000000	0.000000	14.544790	6.285182	-69.837271	-19.732927	0.000000	0.000000	-0.000000	-0.000000	96.626320	54.523980	11.841760	-0.017212	0.637572	0.533019	-1.000000	-1.000000	-1.000000	-1.000000	-1.000000	-1.000000	-1.000000	11.379310	0.000000	-1.000000	-1.000000	383953.000000	1772914704.543511
4869.360000	91007.730000	-11103.705000	-24670.215000	0.000000	0.000000	0.000000	0.000000	-22.333370	-11.354931	-102.891109	21.135383	0.000000	0.000000	-0.000000	-0.000000	96.626320	54.523980	11.841760	-0.017212	0.637572	0.533019	-1.000000	-1.000000	-1.000000	-1.000000	-1.000000	-1.000000	-1.000000	11.379310	0.000000	-1.000000	-1.000000	383954.000000	1772914704.547521
4692.645000	91014.660000	-11008.080000	-24738.795000	0.000000	0.000000	0.000000	0.000000	-32.039279	-20.889672	-63.126610	67.239469	0.000000	0.000000	-0.000000	-0.000000	96.626320	54.523980	11.841760	-0.017212	0.637572	0.533019	-1.000000	-1.000000	-1.000000	-1.000000	-1.000000	-1.000000	-1.000000	11.379310	0.000000	-1.000000	-1.000000	383955.000000	1772914704.547524
4663.215000	91030.005000	-11106.630000	-24816.870000	0.000000	0.000000	0.000000	0.000000	-26.462677	-17.688494	24.300022	83.776562	0.000000	0.000000	-0.000000	-0.000000	37.692200	25.179000	0.183120	-0.051330	0.810118	0.577879	-1.000000	-1.000000	-1.000000	-1.000000	-1.000000	-1.000000	-1.000000	11.379310	0.000000	-1.000000	-1.000000	383956.000000	1772914704.551732
4620.960000	91044.720000	-11177.820000	-24874.065000	0.000000	0.000000	0.000000	0.000000	-24.978036	-4.791581	87.066332	52.614665	0.000000	0.000000	-0.000000	-0.000000	37.692200	25.179000	0.183120	-0.051330	0.810118	0.577879	-1.000000	-1.000000	-1.000000	-1.000000	-1.000000	-1.000000	-1.000000	11.379310	0.000000	-1.000000	-1.000000	383957.000000	1772914704.551734
4811.805000	91060.290000	-11038.050000	-24616.395000	0.000000	0.000000	0.000000	0.000000	-24.462525	9.962223	79.565990	-5.221702	0.000000	0.000000	-0.000000	-0.000000	37.692200	25.179000	0.183120	-0.051330	0.810118	0.577879	-1.000000	-1.000000	-1.000000	-1.000000	-1.000000	-1.000000	-1.000000	11.379310	0.000000	-1.000000	-1.000000	383958.000000	1772914704.555515
4796.055000	91053.270000	-11076.120000	-24682.095000	0.000000	0.000000	0.000000	0.000000	-7.998072	18.710854	23.231487	-44.445597	0.000000	0.000000	-0.000000	-0.000000	37.692200	25.179000	0.183120	-0.051330	0.810118	0.577879	-1.000000	-1.000000	-1.000000	-1.000000	-1.000000	-1.000000	-1.000000	11.379310	0.000000	-1.000000	-1.000000	383959.000000	1772914704.555518
4680.810000	91030.725000	-11151.045000	-24935.040000	0.000000	0.000000	0.000000	0.000000	20.236601	16.794237	-36.093301	-50.935503	0.000000	0.000000	-0.000000	-0.000000	37.692200	25.179000	0.183120	-0.051330	0.810118	0.577879	-1.000000	-1.000000	-1.000000	-1.000000	-1.000000	-1.000000	-1.000000	11.379310	0.000000	-1.000000	-1.000000	383960.000000	1772914704.559432
4737.510000	91018.080000	-11016.405000	-24789.420000	0.000000	0.000000	0.000000	0.000000	34.327716	4.868721	-70.458685	-48.803342	0.000000	0.000000	-0.000000	-0.000000	37.692200	25.179000	0.183120	-0.051330	0.810118	0.577879	-1.000000	-1.000000	-1.000000	-1.000000	-1.000000	-1.000000	-1.000000	11.379310	0.000000	-1.000000	-1.000000	383961.000000	1772914704.559435
4768.065000	91006.650000	-10992.420000	-24751.260000	0.000000	0.000000	0.000000	0.000000	24.420158	-10.574476	-67.730051	-45.543199	0.000000	0.000000	-0.000000	-0.000000	37.692200	25.179000	0.183120	-0.051330	0.810118	0.577879	-1.000000	-1.000000	-1.000000	-1.000000	-1.000000	-1.000000	-1.000000	11.379310	0.000000	-1.000000	-1.000000	383962.000000	1772914704.563532
4695.930000	91005.570000	-11070.405000	-24845.175000	0.000000	0.000000	0.000000	0.000000	4.112803	-20.810711	-34.343024	-28.088333	0.000000	0.000000	-0.000000	-0.000000	37.692200	25.179000	0.183120	-0.051330	0.810118	0.577879	-1.000000	-1.000000	-1.000000	-1.000000	-1.000000	-1.000000	-1.000000	11.379310	0.000000	-1.000000	-1.000000	383963.000000	1772914704.563536
4688.685000	91024.605000	-11031.300000	-24782.490000	0.000000	0.000000	0.000000	0.000000	-14.664855	-20.167021	3.153885	-0.151349	0.000000	0.000000	-0.000000	-0.000000	37.692200	25.179000	0.183120	-0.051330	0.810118	0.577879	-1.000000	-1.000000	-1.000000	-1.000000	-1.000000	-1.000000	-1.000000	11.379310	0.000000	-1.000000	-1.000000	383964.000000	1772914704.568946
4695.210000	91048.185000	-11023.515000	-24781.320000	0.000000	0.000000	0.000000	0.000000	-26.653543	-8.618434	24.276829	24.007536	0.000000	0.000000	-0.000000	-0.000000	37.692200	25.179000	0.183120	-0.051330	0.810118	0.577879	-1.000000	-1.000000	-1.000000	-1.000000	-1.000000	-1.000000	-1.000000	11.379310	0.000000	-1.000000	-1.000000	383965.000000	1772914704.568949
4668.435000	91060.560000	-11126.340000	-24897.870000	0.000000	0.000000	0.000000	0.000000	-27.423361	8.200940	26.544124	35.117471	0.000000	0.000000	-0.000000	-0.000000	-25.087440	2.792580	-7.523180	-0.072449	0.874082	0.611754	-1.000000	-1.000000	-1.000000	-1.000000	-1.000000	-1.000000	-1.000000	11.379310	0.000000	-1.000000	-1.000000	383966.000000	1772914704.571509
4728.330000	91064.970000	-11019.645000	-24797.475000	0.000000	0.000000	0.000000	0.000000	-16.314199	21.396277	16.080518	29.115336	0.000000	0.000000	-0.000000	-0.000000	-25.087440	2.792580	-7.523180	-0.072449	0.874082	0.611754	-1.000000	-1.000000	-1.000000	-1.000000	-1.000000	-1.000000	-1.000000	11.379310	0.000000	-1.000000	-1.000000	383967.000000	1772914704.571512
4611.915000	91046.880000	-11030.490000	-24857.595000	0.000000	0.000000	0.000000	0.000000	0.581543	23.602717	5.514325	13.450713	0.000000	0.000000	-0.000000	-0.000000	-25.087440	2.792580	-7.523180	-0.072449	0.874082	0.611754	-1.000000	-1.000000	-1.000000	-1.000000	-1.000000	-1.000000	-1.000000	11.379310	0.000000	-1.000000	-1.000000	383968.000000	1772914704.575434
4558.230000	91024.155000	-11091.555000	-24908.580000	0.000000	0.000000	0.000000	0.000000	10.799463	13.130260	3.473400	-0.926476	0.000000	0.000000	-0.000000	-0.000000	-25.087440	2.792580	-7.523180	-0.072449	0.874082	0.611754	-1.000000	-1.000000	-1.000000	-1.000000	-1.000000	-1.000000	-1.000000	11.379310	0.000000	-1.000000	-1.000000	383969.000000	1772914704.575437
4719.420000	91012.950000	-11082.240000	-24899.175000	0.000000	0.000000	0.000000	0.000000	9.924955	-4.785909	4.484886	-11.256495	0.000000	0.000000	-0.000000	-0.000000	-25.087440	2.792580	-7.523180	-0.072449	0.874082	0.611754	-1.000000	-1.000000	-1.000000	-1.000000	-1.000000	-1.000000	-1.000000	11.379310	0.000000	-1.000000	-1.000000	383970.000000	1772914704.579969
4889.295000	91019.160000	-11006.145000	-24716.970000	0.000000	0.000000	0.000000	0.000000	14.266385	-20.229520	3.803606	-12.408208	0.000000	0.000000	-0.000000	-0.000000	-25.087440	2.792580	-7.523180	-0.072449	0.874082	0.611754	-1.000000	-1.000000	-1.000000	-1.000000	-1.000000	-1.000000	-1.000000	11.379310	0.000000	-1.000000	-1.000000	383971.000000	1772914704.579972
4928.040000	91031.895000	-11005.650000	-24716.340000	0.000000	0.000000	0.000000	0.000000	36.667720	-24.340859	5.881363	3.736417	0.000000	0.000000	-0.000000	-0.000000	-25.087440	2.792580	-7.523180	-0.072449	0.874082	0.611754	-1.000000	-1.000000	-1.000000	-1.000000	-1.000000	-1.000000	-1.000000	11.379310	0.000000	-1.000000	-1.000000	383972.000000	1772914704.583707
4645.170000	91040.625000	-11089.395000	-24916.680000	0.000000	0.000000	0.000000	0.000000	54.511142	-15.224150	9.841221	24.620411	0.000000	0.000000	-0.000000	-0.000000	-25.087440	2.792580	-7.523180	-0.072449	0.874082	0.611754	-1.000000	-1.000000	-1.000000	-1.000000	-1.000000	-1.000000	-1.000000	11.379310	0.000000	-1.000000	-1.000000	383973.000000	1772914704.583710
4576.230000	91056.465000	-10983.690000	-24871.725000	0.000000	0.000000	0.000000	0.000000	29.052791	1.165982	7.942724	21.843822	0.000000	0.000000	-0.000000	-0.000000	-25.087440	2.792580	-7.523180	-0.072449	0.874082	0.611754	-1.000000	-1.000000	-1.000000	-1.000000	-1.000000	-1.000000	-1.000000	11.379310	0.000000	-1.000000	-1.000000	383974.000000	1772914704.587484
4680.090000	91061.595000	-10959.840000	-24856.380000	0.000000	0.000000	0.000000	0.000000	-36.133463	15.729296	2.043207	-6.917152	0.000000	0.000000	-0.000000	-0.000000	-25.087440	2.792580	-7.523180	-0.072449	0.874082	0.611754	-1.000000	-1.000000	-1.000000	-1.000000	-1.000000	-1.000000	-1.000000	11.379310	0.000000	-1.000000	-1.000000	383975.000000	1772914704.587487
4658.985000	91050.345000	-10977.570000	-24901.605000	0.000000	0.000000	0.000000	0.000000	-87.856866	21.403473	-0.360610	-34.269805	0.000000	0.000000	-0.000000	-0.000000	-15.061620	-5.859840	-4.257540	-0.073059	0.862058	0.622496	-1.000000	-1.000000	-1.000000	-1.000000	-1.000000	-1.000000	-1.000000	11.379310	0.000000	-1.000000	-1.000000	383976.000000	1772914704.591572
4734.585000	91039.095000	-10818.540000	-24734.835000	0.000000	0.000000	0.000000	0.000000	-84.374592	15.903576	1.731539	-37.590507	0.000000	0.000000	-0.000000	-0.000000	-15.061620	-5.859840	-4.257540	-0.073059	0.862058	0.622496	-1.000000	-1.000000	-1.000000	-1.000000	-1.000000	-1.000000	-1.000000	11.379310	0.000000	-1.000000	-1.000000	383977.000000	1772914704.591574
4792.410000	91019.880000	-10737.090000	-24655.050000	0.000000	0.000000	0.000000	0.000000	-31.191736	2.500918	8.872167	-11.625989	0.000000	0.000000	-0.000000	-0.000000	-15.061620	-5.859840	-4.257540	-0.073059	0.862058	0.622496	-1.000000	-1.000000	-1.000000	-1.000000	-1.000000	-1.000000	-1.000000	11.379310	0.000000	-1.000000	-1.000000	383978.000000	1772914704.595547
4572.225000	90995.895000	-11004.795000	-24930.540000	0.000000	0.000000	0.000000	0.000000	32.029492	-12.053597	13.882249	24.722268	0.000000	0.000000	-0.000000	-0.000000	-15.061620	-5.859840	-4.257540	-0.073059	0.862058	0.622496	-1.000000	-1.000000	-1.000000	-1.000000	-1.000000	-1.000000	-1.000000	11.379310	0.000000	-1.000000	-1.000000	383979.000000	1772914704.595550
4567.320000	91001.475000	-11075.760000	-24995.115000	0.000000	0.000000	0.000000	0.000000	60.194923	-20.960506	-4.602489	32.539117	0.000000	0.000000	-0.000000	-0.000000	-15.061620	-5.859840	-4.257540	-0.073059	0.862058	0.622496	-1.000000	-1.000000	-1.000000	-1.000000	-1.000000	-1.000000	-1.000000	11.379310	0.000000	-1.000000	-1.000000	383980.000000	1772914704.599540
4753.215000	91036.125000	-10833.345000	-24765.120000	0.000000	0.000000	0.000000	0.000000	45.065489	-19.196120	-43.375855	3.111944	0.000000	0.000000	-0.000000	-0.000000	-15.061620	-5.859840	-4.257540	-0.073059	0.862058	0.622496	-1.000000	-1.000000	-1.000000	-1.000000	-1.000000	-1.000000	-1.000000	11.379310	0.000000	-1.000000	-1.000000	383981.000000	1772914704.599543
4846.455000	91063.710000	-10679.940000	-24632.235000	0.000000	0.000000	0.000000	0.000000	22.729066	-5.794854	-57.526065	-20.504685	0.000000	0.000000	-0.000000	-0.000000	-15.061620	-5.859840	-4.257540	-0.073059	0.862058	0.622496	-1.000000	-1.000000	-1.000000	-1.000000	-1.000000	-1.000000	-1.000000	11.379310	0.000000	-1.000000	-1.000000	383982.000000	1772914704.603574
4816.035000	91077.885000	-10678.815000	-24585.885000	0.000000	0.000000	0.000000	0.000000	20.688959	13.173421	-19.447793	-3.513775	0.000000	0.000000	-0.000000	-0.000000	-15.061620	-5.859840	-4.257540	-0.073059	0.862058	0.622496	-1.000000	-1.000000	-1.000000	-1.000000	-1.000000	-1.000000	-1.000000	11.379310	0.000000	-1.000000	-1.000000	383983.000000	1772914704.603577
4559.040000	91055.655000	-11054.835000	-25025.805000	0.000000	0.000000	0.000000	0.000000	21.749760	26.282872	32.897678	27.393323	0.000000	0.000000	-0.000000	-0.000000	-15.061620	-5.859840	-4.257540	-0.073059	0.862058	0.622496	-1.000000	-1.000000	-1.000000	-1.000000	-1.000000	-1.000000	-1.000000	11.379310	0.000000	-1.000000	-1.000000	383984.000000	1772914704.615683
4660.560000	91044.180000	-10996.380000	-25065.270000	0.000000	0.000000	0.000000	0.000000	-2.680123	24.411962	39.176383	16.733626	0.000000	0.000000	-0.000000	-0.000000	-15.061620	-5.859840	-4.257540	-0.073059	0.862058	0.622496	-1.000000	-1.000000	-1.000000	-1.000000	-1.000000	-1.000000	-1.000000	11.379310	0.000000	-1.000000	-1.000000	383985.000000	1772914704.615685
4889.610000	91039.995000	-10757.655000	-24692.625000	0.000000	0.000000	0.000000	0.000000	-38.567396	8.385371	0.295958	-33.312384	0.000000	0.000000	-0.000000	-0.000000	-6.943300	-8.103060	4.516960	-0.068237	0.822752	0.630492	-1.000000	-1.000000	-1.000000	-1.000000	-1.000000	-1.000000	-1.000000	11.379310	0.000000	-1.000000	-1.000000	383986.000000	1772914704.615689
4946.175000	91028.745000	-10789.785000	-24608.745000	0.000000	0.000000	0.000000	0.000000	-42.570083	-11.590276	-25.762188	-53.919980	0.000000	0.000000	-0.000000	-0.000000	-6.943300	-8.103060	4.516960	-0.068237	0.822752	0.630492	-1.000000	-1.000000	-1.000000	-1.000000	-1.000000	-1.000000	-1.000000	11.379310	0.000000	-1.000000	-1.000000	383987.000000	1772914704.615691
4962.420000	91037.385000	-10758.645000	-24657.615000	0.000000	0.000000	0.000000	0.000000	-6.402932	-24.222570	-9.748193	-10.712416	0.000000	0.000000	-0.000000	-0.000000	-6.943300	-8.103060	4.516960	-0.068237	0.822752	0.630492	-1.000000	-1.000000	-1.000000	-1.000000	-1.000000	-1.000000	-1.000000	11.379310	0.000000	-1.000000	-1.000000	383988.000000	1772914704.615694
4647.555000	91036.845000	-11162.835000	-24940.935000	0.000000	0.000000	0.000000	0.000000	27.255395	-24.057226	16.398011	45.504086	0.000000	0.000000	-0.000000	-0.000000	-6.943300	-8.103060	4.516960	-0.068237	0.822752	0.630492	-1.000000	-1.000000	-1.000000	-1.000000	-1.000000	-1.000000	-1.000000	11.379310	0.000000	-1.000000	-1.000000	383989.000000	1772914704.615696
4486.320000	91046.385000	-11355.885000	-25201.620000	0.000000	0.000000	0.000000	0.000000	11.608350	-13.062188	4.832683	44.538626	0.000000	0.000000	-0.000000	-0.000000	-6.943300	-8.103060	4.516960	-0.068237	0.822752	0.630492	-1.000000	-1.000000	-1.000000	-1.000000	-1.000000	-1.000000	-1.000000	11.379310	0.000000	-1.000000	-1.000000	383990.000000	1772914704.620503
4674.015000	91084.860000	-10839.420000	-24870.195000	0.000000	0.000000	0.000000	0.000000	-45.859012	2.545429	-37.450130	-16.068524	0.000000	0.000000	-0.000000	-0.000000	-6.943300	-8.103060	4.516960	-0.068237	0.822752	0.630492	-1.000000	-1.000000	-1.000000	-1.000000	-1.000000	-1.000000	-1.000000	11.379310	0.000000	-1.000000	-1.000000	383991.000000	1772914704.620506
4593.015000	91078.380000	-11027.250000	-25007.130000	0.000000	0.000000	0.000000	0.000000	-84.028115	16.299834	-45.386190	-66.672687	0.000000	0.000000	-0.000000	-0.000000	-6.943300	-8.103060	4.516960	-0.068237	0.822752	0.630492	-1.000000	-1.000000	-1.000000	-1.000000	-1.000000	-1.000000	-1.000000	11.379310	0.000000	-1.000000	-1.000000	383992.000000	1772914704.623712
4458.330000	91056.780000	-11062.755000	-25082.100000	0.000000	0.000000	0.000000	0.000000	-64.613522	21.945204	4.126205	-57.972136	0.000000	0.000000	-0.000000	-0.000000	-6.943300	-8.103060	4.516960	-0.068237	0.822752	0.630492	-1.000000	-1.000000	-1.000000	-1.000000	-1.000000	-1.000000	-1.000000	11.379310	0.000000	-1.000000	-1.000000	383993.000000	1772914704.623715
4620.105000	91046.205000	-10826.190000	-24918.930000	0.000000	0.000000	0.000000	0.000000	-6.999296	15.649185	64.723965	-7.312924	0.000000	0.000000	-0.000000	-0.000000	-6.943300	-8.103060	4.516960	-0.068237	0.822752	0.630492	-1.000000	-1.000000	-1.000000	-1.000000	-1.000000	-1.000000	-1.000000	11.379310	0.000000	-1.000000	-1.000000	383994.000000	1772914704.630041
4502.835000	91020.825000	-10900.665000	-25019.820000	0.000000	0.000000	0.000000	0.000000	53.761253	0.489609	96.466273	48.281374	0.000000	0.000000	-0.000000	-0.000000	-6.943300	-8.103060	4.516960	-0.068237	0.822752	0.630492	-1.000000	-1.000000	-1.000000	-1.000000	-1.000000	-1.000000	-1.000000	11.379310	0.000000	-1.000000	-1.000000	383995.000000	1772914704.630043
4466.835000	91009.980000	-11099.745000	-25084.125000	0.000000	0.000000	0.000000	0.000000	90.072699	-15.034821	83.594536	78.866995	0.000000	0.000000	-0.000000	-0.000000	-3.784480	-8.331960	-1.709120	-0.057312	0.775022	0.635680	-1.000000	-1.000000	-1.000000	-1.000000	-1.000000	-1.000000	-1.000000	11.379310	0.000000	-1.000000	-1.000000	383996.000000	1772914704.631526
4614.390000	91033.875000	-10965.105000	-24891.390000	0.000000	0.000000	0.000000	0.000000	88.926749	-22.260828	25.221172	71.034092	0.000000	0.000000	-0.000000	-0.000000	-3.784480	-8.331960	-1.709120	-0.057312	0.775022	0.635680	-1.000000	-1.000000	-1.000000	-1.000000	-1.000000	-1.000000	-1.000000	11.379310	0.000000	-1.000000	-1.000000	383997.000000	1772914704.631529
4660.155000	91059.210000	-10844.145000	-24843.690000	0.000000	0.000000	0.000000	0.000000	64.427728	-16.325284	-43.133205	42.965755	-0.000000	0.000000	-0.000000	-0.000000	-3.784480	-8.331960	-1.709120	-0.057312	0.775022	0.635680	-1.000000	-1.000000	-1.000000	-1.000000	-1.000000	-1.000000	-1.000000	11.379310	0.000000	-1.000000	-1.000000	383998.000000	1772914704.635699
4616.055000	91074.285000	-10879.020000	-24903.855000	0.000000	0.000000	0.000000	0.000000	36.088679	0.261375	-74.191362	17.390985	-0.000000	0.000000	-0.000000	-0.000000	-3.784480	-8.331960	-1.709120	-0.057312	0.775022	0.635680	-1.000000	-1.000000	-1.000000	-1.000000	-1.000000	-1.000000	-1.000000	11.379310	0.000000	-1.000000	-1.000000	383999.000000	1772914704.635702
4631.940000	91083.645000	-10796.175000	-24832.845000	0.000000	0.000000	0.000000	0.000000	6.062675	17.829430	-59.466066	-5.114039	-0.000000	0.000000	-0.000000	-0.000000	-3.784480	-8.331960	-1.709120	-0.057312	0.775022	0.635680	-1.000000	-1.000000	-1.000000	-1.000000	-1.000000	-1.000000	-1.000000	11.379310	0.000000	-1.000000	-1.000000	384000.000000	1772914704.639527
4591.350000	91066.320000	-10902.330000	-24896.070000	0.000000	0.000000	0.000000	0.000000	-27.504555	25.750530	-25.958047	-29.139704	-0.000000	0.000000	-0.000000	-0.000000	-3.784480	-8.331960	-1.709120	-0.057312	0.775022	0.635680	-1.000000	-1.000000	-1.000000	-1.000000	-1.000000	-1.000000	-1.000000	11.379310	0.000000	-1.000000	-1.000000	384001.000000	1772914704.639530
4625.910000	91040.670000	-10915.605000	-24962.715000	0.000000	0.000000	0.000000	0.000000	-56.765370	18.992244	-3.734933	-52.211535	-0.000000	0.000000	-0.000000	-0.000000	-3.784480	-8.331960	-1.709120	-0.057312	0.775022	0.635680	-1.000000	-1.000000	-1.000000	-1.000000	-1.000000	-1.000000	-1.000000	11.379310	0.000000	-1.000000	-1.000000	384002.000000	1772914704.643534
4824.945000	91036.845000	-10570.365000	-24616.935000	0.000000	0.000000	0.000000	0.000000	-65.664979	1.209052	2.677946	-62.461408	-0.000000	0.000000	-0.000000	-0.000000	-3.784480	-8.331960	-1.709120	-0.057312	0.775022	0.635680	-1.000000	-1.000000	-1.000000	-1.000000	-1.000000	-1.000000	-1.000000	11.379310	0.000000	-1.000000	-1.000000	384003.000000	1772914704.643538
4919.535000	91036.845000	-10372.860000	-24406.920000	0.000000	0.000000	0.000000	0.000000	-41.218020	-16.910739	18.755027	-36.897317	-0.000000	0.000000	-0.000000	-0.000000	-3.784480	-8.331960	-1.709120	-0.057312	0.775022	0.635680	-1.000000	-1.000000	-1.000000	-1.000000	-1.000000	-1.000000	-1.000000	11.379310	0.000000	-1.000000	-1.000000	384004.000000	1772914704.647506
4585.005000	91014.345000	-10918.305000	-25041.735000	0.000000	0.000000	0.000000	0.000000	-0.482163	-25.340388	44.704493	13.077160	-0.000000	0.000000	-0.000000	-0.000000	-3.784480	-8.331960	-1.709120	-0.057312	0.775022	0.635680	-1.000000	-1.000000	-1.000000	-1.000000	-1.000000	-1.000000	-1.000000	11.379310	0.000000	-1.000000	-1.000000	384005.000000	1772914704.647509
4510.800000	91031.805000	-10850.715000	-25075.530000	0.000000	0.000000	0.000000	0.000000	11.183986	-21.420351	32.563997	22.949752	-0.000000	0.000000	-0.000000	-0.000000	7.874160	0.091560	-2.075360	-0.046265	0.752806	0.626524	-1.000000	-1.000000	-1.000000	-1.000000	-1.000000	-1.000000	-1.000000	11.379310	0.000000	-1.000000	-1.000000	384006.000000	1772914704.651713
4559.130000	91053.720000	-10909.035000	-24927.480000	0.000000	0.000000	0.000000	0.000000	-20.480449	-8.301142	-31.624817	-28.605664	-0.000000	0.000000	-0.000000	-0.000000	7.874160	0.091560	-2.075360	-0.046265	0.752806	0.626524	-1.000000	-1.000000	-1.000000	-1.000000	-1.000000	-1.000000	-1.000000	11.379310	0.000000	-1.000000	-1.000000	384007.000000	1772914704.651716
4514.760000	91056.330000	-11192.940000	-25174.395000	0.000000	0.000000	0.000000	0.000000	-55.050075	8.302523	-98.256377	-79.533156	-0.000000	0.000000	-0.000000	-0.000000	7.874160	0.091560	-2.075360	-0.046265	0.752806	0.626524	-1.000000	-1.000000	-1.000000	-1.000000	-1.000000	-1.000000	-1.000000	11.379310	0.000000	-1.000000	-1.000000	384008.000000	1772914704.655495
4682.745000	91067.985000	-10904.805000	-24919.695000	0.000000	0.000000	0.000000	0.000000	-49.312086	20.993864	-117.781598	-74.388070	-0.000000	0.000000	-0.000000	-0.000000	7.874160	0.091560	-2.075360	-0.046265	0.752806	0.626524	-1.000000	-1.000000	-1.000000	-1.000000	-1.000000	-1.000000	-1.000000	11.379310	0.000000	-1.000000	-1.000000	384009.000000	1772914704.655498
4752.810000	91059.930000	-10676.745000	-24696.270000	0.000000	0.000000	0.000000	0.000000	3.175775	23.916264	-64.461610	-6.668391	-0.000000	0.000000	-0.000000	-0.000000	7.874160	0.091560	-2.075360	-0.046265	0.752806	0.626524	-1.000000	-1.000000	-1.000000	-1.000000	-1.000000	-1.000000	-1.000000	11.379310	0.000000	-1.000000	-1.000000	384010.000000	1772914704.659552
4726.305000	91035.495000	-10720.980000	-24759.900000	0.000000	0.000000	0.000000	0.000000	71.827757	15.851694	49.325553	93.179945	-0.000000	0.000000	-0.000000	-0.000000	7.874160	0.091560	-2.075360	-0.046265	0.752806	0.626524	-1.000000	-1.000000	-1.000000	-1.000000	-1.000000	-1.000000	-1.000000	11.379310	0.000000	-1.000000	-1.000000	384011.000000	1772914704.659555
4681.665000	91016.370000	-10809.540000	-24870.870000	0.000000	0.000000	0.000000	0.000000	109.044653	0.244451	153.140796	159.942742	-0.000000	0.000000	-0.000000	-0.000000	7.874160	0.091560	-2.075360	-0.046265	0.752806	0.626524	-1.000000	-1.000000	-1.000000	-1.000000	-1.000000	-1.000000	-1.000000	11.379310	0.000000	-1.000000	-1.000000	384012.000000	1772914704.663602
4566.015000	91014.030000	-10873.035000	-24957.990000	0.000000	0.000000	0.000000	0.000000	86.297275	-15.625467	171.887722	138.712605	-0.000000	0.000000	-0.000000	-0.000000	7.874160	0.091560	-2.075360	-0.046265	0.752806	0.626524	-1.000000	-1.000000	-1.000000	-1.000000	-1.000000	-1.000000	-1.000000	11.379310	0.000000	-1.000000	-1.000000	384013.000000	1772914704.663605
4526.685000	91025.505000	-10918.080000	-25054.515000	0.000000	0.000000	0.000000	0.000000	15.574034	-23.348108	96.196748	38.534678	-0.000000	0.000000	-0.000000	-0.000000	7.874160	0.091560	-2.075360	-0.046265	0.752806	0.626524	-1.000000	-1.000000	-1.000000	-1.000000	-1.000000	-1.000000	-1.000000	11.379310	0.000000	-1.000000	-1.000000	384014.000000	1772914704.667585
4713.660000	91059.030000	-10779.435000	-24871.815000	0.000000	0.000000	0.000000	0.000000	-57.084876	-18.159109	-16.284210	-74.565377	-0.000000	0.000000	-0.000000	-0.000000	7.874160	0.091560	-2.075360	-0.046265	0.752806	0.626524	-1.000000	-1.000000	-1.000000	-1.000000	-1.000000	-1.000000	-1.000000	11.379310	0.000000	-1.000000	-1.000000	384015.000000	1772914704.667587
4680.810000	91076.580000	-10754.190000	-24858.945000	0.000000	0.000000	0.000000	0.000000	-83.329386	-2.313129	-92.793262	-128.835817	-0.000000	0.000000	-0.000000	-0.000000	16.984380	8.377740	-5.112100	-0.067688	0.740416	0.605833	-1.000000	-1.000000	-1.000000	-1.000000	-1.000000	-1.000000	-1.000000	11.379310	0.000000	-1.000000	-1.000000	384016.000000	1772914704.671545
4646.250000	91075.455000	-10815.840000	-24907.815000	0.000000	0.000000	0.000000	0.000000	-56.057414	15.164214	-102.138121	-103.220186	-0.000000	0.000000	-0.000000	-0.000000	16.984380	8.377740	-5.112100	-0.067688	0.740416	0.605833	-1.000000	-1.000000	-1.000000	-1.000000	-1.000000	-1.000000	-1.000000	11.379310	0.000000	-1.000000	-1.000000	384017.000000	1772914704.671548
4499.910000	91059.975000	-10929.285000	-25013.745000	0.000000	0.000000	0.000000	0.000000	-12.691822	23.419195	-68.810425	-38.209067	-0.000000	0.000000	-0.000000	-0.000000	16.984380	8.377740	-5.112100	-0.067688	0.740416	0.605833	-1.000000	-1.000000	-1.000000	-1.000000	-1.000000	-1.000000	-1.000000	11.379310	0.000000	-1.000000	-1.000000	384018.000000	1772914704.675492
4513.680000	91042.920000	-10868.445000	-24977.520000	0.000000	0.000000	0.000000	0.000000	9.323502	17.239003	-32.424606	13.672682	-0.000000	0.000000	-0.000000	-0.000000	16.984380	8.377740	-5.112100	-0.067688	0.740416	0.605833	-1.000000	-1.000000	-1.000000	-1.000000	-1.000000	-1.000000	-1.000000	11.379310	0.000000	-1.000000	-1.000000	384019.000000	1772914704.675495
4649.085000	91033.245000	-10674.585000	-24827.895000	0.000000	0.000000	0.000000	0.000000	9.286283	0.766294	-3.754800	36.669369	-0.000000	0.000000	-0.000000	-0.000000	16.984380	8.377740	-5.112100	-0.067688	0.740416	0.605833	-1.000000	-1.000000	-1.000000	-1.000000	-1.000000	-1.000000	-1.000000	11.379310	0.000000	-1.000000	-1.000000	384020.000000	1772914704.679499
4547.340000	91024.335000	-10741.680000	-24817.050000	0.000000	0.000000	0.000000	0.000000	10.060343	-15.838285	27.013749	46.462420	-0.000000	0.000000	-0.000000	-0.000000	16.984380	8.377740	-5.112100	-0.067688	0.740416	0.605833	-1.000000	-1.000000	-1.000000	-1.000000	-1.000000	-1.000000	-1.000000	11.379310	0.000000	-1.000000	-1.000000	384021.000000	1772914704.679502
4505.715000	91025.415000	-10989.540000	-24992.280000	0.000000	0.000000	0.000000	0.000000	17.667398	-23.482935	48.705497	48.782171	-0.000000	0.000000	-0.000000	-0.000000	16.984380	8.377740	-5.112100	-0.067688	0.740416	0.605833	-1.000000	-1.000000	-1.000000	-1.000000	-1.000000	-1.000000	-1.000000	11.379310	0.000000	-1.000000	-1.000000	384022.000000	1772914704.683668
4579.290000	91050.210000	-10921.140000	-25065.630000	0.000000	0.000000	0.000000	0.000000	20.786841	-18.743141	35.781291	28.817879	-0.000000	0.000000	-0.000000	-0.000000	16.984380	8.377740	-5.112100	-0.067688	0.740416	0.605833	-1.000000	-1.000000	-1.000000	-1.000000	-1.000000	-1.000000	-1.000000	11.379310	0.000000	-1.000000	-1.000000	384023.000000	1772914704.683672
4631.445000	91077.705000	-10775.385000	-24851.700000	0.000000	0.000000	0.000000	0.000000	18.718263	-4.040015	-0.842926	-10.304608	-0.000000	0.000000	-0.000000	-0.000000	16.984380	8.377740	-5.112100	-0.067688	0.740416	0.605833	-1.000000	-1.000000	-1.000000	-1.000000	-1.000000	-1.000000	-1.000000	11.379310	0.000000	-1.000000	-1.000000	384024.000000	1772914704.688467
4649.445000	91087.020000	-10709.190000	-24780.240000	0.000000	0.000000	0.000000	0.000000	18.694974	13.563179	-18.688051	-33.108899	-0.000000	0.000000	-0.000000	-0.000000	16.984380	8.377740	-5.112100	-0.067688	0.740416	0.605833	-1.000000	-1.000000	-1.000000	-1.000000	-1.000000	-1.000000	-1.000000	11.379310	0.000000	-1.000000	-1.000000	384025.000000	1772914704.688470
4469.220000	91066.365000	-10844.190000	-25020.405000	0.000000	0.000000	0.000000	0.000000	15.779002	24.436040	-3.506208	-22.047496	-0.000000	0.000000	-0.000000	-0.000000	17.808420	12.940480	8.087800	-0.083252	0.765501	0.601256	-1.000000	-1.000000	-1.000000	-1.000000	-1.000000	-1.000000	-1.000000	11.379310	0.000000	-1.000000	-1.000000	384026.000000	1772914704.691561
4498.740000	91049.580000	-10834.965000	-24984.405000	0.000000	0.000000	0.000000	0.000000	-2.209473	21.534811	16.245423	-4.567247	-0.000000	0.000000	-0.000000	-0.000000	17.808420	12.940480	8.087800	-0.083252	0.765501	0.601256	-1.000000	-1.000000	-1.000000	-1.000000	-1.000000	-1.000000	-1.000000	11.379310	0.000000	-1.000000	-1.000000	384027.000000	1772914704.691564
4600.980000	91038.825000	-10800.315000	-24875.640000	0.000000	0.000000	0.000000	0.000000	-27.909427	6.213173	15.694607	-2.751317	-0.000000	0.000000	-0.000000	-0.000000	17.808420	12.940480	8.087800	-0.083252	0.765501	0.601256	-1.000000	-1.000000	-1.000000	-1.000000	-1.000000	-1.000000	-1.000000	11.379310	0.000000	-1.000000	-1.000000	384028.000000	1772914704.695490
4655.610000	91033.785000	-10742.490000	-24843.330000	0.000000	0.000000	0.000000	0.000000	-35.149086	-12.044771	1.676085	-3.297339	-0.000000	0.000000	-0.000000	-0.000000	17.808420	12.940480	8.087800	-0.083252	0.765501	0.601256	-1.000000	-1.000000	-1.000000	-1.000000	-1.000000	-1.000000	-1.000000	11.379310	0.000000	-1.000000	-1.000000	384029.000000	1772914704.695493
4600.980000	91036.080000	-10781.820000	-24989.355000	0.000000	0.000000	0.000000	0.000000	-15.206781	-22.667110	-8.445106	4.561627	-0.000000	0.000000	-0.000000	-0.000000	17.808420	12.940480	8.087800	-0.083252	0.765501	0.601256	-1.000000	-1.000000	-1.000000	-1.000000	-1.000000	-1.000000	-1.000000	11.379310	0.000000	-1.000000	-1.000000	384030.000000	1772914704.699568
4602.420000	91057.095000	-10818.720000	-24985.215000	0.000000	0.000000	0.000000	0.000000	10.964744	-20.512568	-11.363232	8.045453	-0.000000	0.000000	-0.000000	-0.000000	17.808420	12.940480	8.087800	-0.083252	0.765501	0.601256	-1.000000	-1.000000	-1.000000	-1.000000	-1.000000	-1.000000	-1.000000	11.379310	0.000000	-1.000000	-1.000000	384031.000000	1772914704.699571
4879.890000	91093.230000	-10673.325000	-24680.205000	0.000000	0.000000	0.000000	0.000000	25.842544	-7.161022	-10.989115	4.097783	-0.000000	0.000000	-0.000000	-0.000000	17.808420	12.940480	8.087800	-0.083252	0.765501	0.601256	-1.000000	-1.000000	-1.000000	-1.000000	-1.000000	-1.000000	-1.000000	11.379310	0.000000	-1.000000	-1.000000	384032.000000	1772914704.703542
4615.560000	91088.370000	-10942.695000	-24936.345000	0.000000	0.000000	0.000000	0.000000	30.182968	10.347191	-9.132917	7.684128	-0.000000	0.000000	-0.000000	-0.000000	17.808420	12.940480	8.087800	-0.083252	0.765501	0.601256	-1.000000	-1.000000	-1.000000	-1.000000	-1.000000	-1.000000	-1.000000	11.379310	0.000000	-1.000000	-1.000000	384033.000000	1772914704.703545
4359.960000	91074.555000	-10898.865000	-25134.570000	0.000000	0.000000	0.000000	0.000000	13.508755	21.741486	-12.973046	9.562136	-0.000000	0.000000	-0.000000	-0.000000	17.808420	12.940480	8.087800	-0.083252	0.765501	0.601256	-1.000000	-1.000000	-1.000000	-1.000000	-1.000000	-1.000000	-1.000000	11.379310	0.000000	-1.000000	-1.000000	384034.000000	1772914704.707546
4465.485000	91062.720000	-10801.980000	-25015.320000	0.000000	0.000000	0.000000	0.000000	-34.009523	19.691842	-21.178678	-12.042298	-0.000000	0.000000	-0.000000	-0.000000	17.808420	12.940480	8.087800	-0.083252	0.765501	0.601256	-1.000000	-1.000000	-1.000000	-1.000000	-1.000000	-1.000000	-1.000000	11.379310	0.000000	-1.000000	-1.000000	384035.000000	1772914704.707548
4594.950000	91048.140000	-10697.895000	-24873.660000	0.000000	0.000000	0.000000	0.000000	-76.685070	5.859048	-13.567684	-37.324037	-0.000000	0.000000	-0.000000	-0.000000	13.169380	6.302380	-6.760180	-0.097473	0.801756	0.611693	-1.000000	-1.000000	-1.000000	-1.000000	-1.000000	-1.000000	-1.000000	11.379310	0.000000	-1.000000	-1.000000	384036.000000	1772914704.713663
4774.230000	91044.135000	-10549.080000	-24816.600000	0.000000	0.000000	0.000000	0.000000	-62.736122	-10.748088	20.276447	-27.317007	-0.000000	0.000000	-0.000000	-0.000000	13.169380	6.302380	-6.760180	-0.097473	0.801756	0.611693	-1.000000	-1.000000	-1.000000	-1.000000	-1.000000	-1.000000	-1.000000	11.379310	0.000000	-1.000000	-1.000000	384037.000000	1772914704.713666
4643.460000	91028.340000	-10819.395000	-24943.320000	0.000000	0.000000	0.000000	0.000000	7.210416	-20.851920	57.443680	14.813979	-0.000000	0.000000	-0.000000	-0.000000	13.169380	6.302380	-6.760180	-0.097473	0.801756	0.611693	-1.000000	-1.000000	-1.000000	-1.000000	-1.000000	-1.000000	-1.000000	11.379310	0.000000	-1.000000	-1.000000	384038.000000	1772914704.719902
4470.255000	91029.330000	-11065.905000	-25132.185000	0.000000	0.000000	0.000000	0.000000	72.697218	-20.416795	53.080966	43.653445	-0.000000	0.000000	-0.000000	-0.000000	13.169380	6.302380	-6.760180	-0.097473	0.801756	0.611693	-1.000000	-1.000000	-1.000000	-1.000000	-1.000000	-1.000000	-1.000000	11.379310	0.000000	-1.000000	-1.000000	384039.000000	1772914704.719905
4556.655000	91062.360000	-10768.905000	-24933.690000	0.000000	0.000000	0.000000	0.000000	78.585605	-10.565730	-4.059890	29.992979	-0.000000	0.000000	-0.000000	-0.000000	13.169380	6.302380	-6.760180	-0.097473	0.801756	0.611693	-1.000000	-1.000000	-1.000000	-1.000000	-1.000000	-1.000000	-1.000000	11.379310	0.000000	-1.000000	-1.000000	384040.000000	1772914704.719909
4641.795000	91082.835000	-10692.315000	-24775.965000	0.000000	0.000000	0.000000	0.000000	34.702019	4.972271	-58.055188	0.324820	-0.000000	0.000000	-0.000000	-0.000000	13.169380	6.302380	-6.760180	-0.097473	0.801756	0.611693	-1.000000	-1.000000	-1.000000	-1.000000	-1.000000	-1.000000	-1.000000	11.379310	0.000000	-1.000000	-1.000000	384041.000000	1772914704.719912
4668.030000	91079.280000	-10765.080000	-24740.505000	0.000000	0.000000	0.000000	0.000000	-8.634454	19.706693	-55.318576	-3.291052	-0.000000	0.000000	-0.000000	-0.000000	13.169380	6.302380	-6.760180	-0.097473	0.801756	0.611693	-1.000000	-1.000000	-1.000000	-1.000000	-1.000000	-1.000000	-1.000000	11.379310	0.000000	-1.000000	-1.000000	384042.000000	1772914704.724806
4563.495000	91060.605000	-10753.290000	-24911.550000	0.000000	0.000000	0.000000	0.000000	-24.754874	25.323934	-10.898066	15.499155	-0.000000	0.000000	-0.000000	-0.000000	13.169380	6.302380	-6.760180	-0.097473	0.801756	0.611693	-1.000000	-1.000000	-1.000000	-1.000000	-1.000000	-1.000000	-1.000000	11.379310	0.000000	-1.000000	-1.000000	384043.000000	1772914704.724809
4383.900000	91032.165000	-10794.555000	-25044.390000	0.000000	0.000000	0.000000	0.000000	-27.704274	17.243975	27.805876	16.259014	-0.000000	0.000000	-0.000000	-0.000000	13.169380	6.302380	-6.760180	-0.097473	0.801756	0.611693	-1.000000	-1.000000	-1.000000	-1.000000	-1.000000	-1.000000	-1.000000	11.379310	0.000000	-1.000000	-1.000000	384044.000000	1772914704.728161
4539.465000	91022.895000	-10671.795000	-24910.065000	0.000000	0.000000	0.000000	0.000000	-35.062908	-0.749523	37.786754	-17.102688	-0.000000	0.000000	-0.000000	-0.000000	13.169380	6.302380	-6.760180	-0.097473	0.801756	0.611693	-1.000000	-1.000000	-1.000000	-1.000000	-1.000000	-1.000000	-1.000000	11.379310	0.000000	-1.000000	-1.000000	384045.000000	1772914704.728164
4631.085000	91025.820000	-10530.090000	-24785.730000	0.000000	0.000000	0.000000	0.000000	-34.548242	-18.058871	30.353290	-50.004958	-0.000000	0.000000	-0.000000	-0.000000	-5.310480	-1.190280	-6.867000	-0.096313	0.829344	0.616331	-1.000000	-1.000000	-1.000000	-1.000000	-1.000000	-1.000000	-1.000000	11.379310	0.000000	-1.000000	-1.000000	384046.000000	1772914704.731614
4358.970000	91019.340000	-10849.320000	-25068.690000	0.000000	0.000000	0.000000	0.000000	-12.583116	-24.671647	19.174871	-48.422676	-0.000000	0.000000	-0.000000	-0.000000	-5.310480	-1.190280	-6.867000	-0.096313	0.829344	0.616331	-1.000000	-1.000000	-1.000000	-1.000000	-1.000000	-1.000000	-1.000000	11.379310	0.000000	-1.000000	-1.000000	384047.000000	1772914704.731617
4514.220000	91040.355000	-10807.065000	-25021.755000	0.000000	0.000000	0.000000	0.000000	12.998957	-17.932655	-4.439212	-25.522325	-0.000000	0.000000	-0.000000	-0.000000	-5.310480	-1.190280	-6.867000	-0.096313	0.829344	0.616331	-1.000000	-1.000000	-1.000000	-1.000000	-1.000000	-1.000000	-1.000000	11.379310	0.000000	-1.000000	-1.000000	384048.000000	1772914704.735639
4649.760000	91067.535000	-10657.440000	-24861.240000	0.000000	0.000000	0.000000	0.000000	28.167424	-2.213532	-37.856348	-3.588412	-0.000000	0.000000	-0.000000	-0.000000	-5.310480	-1.190280	-6.867000	-0.096313	0.829344	0.616331	-1.000000	-1.000000	-1.000000	-1.000000	-1.000000	-1.000000	-1.000000	11.379310	0.000000	-1.000000	-1.000000	384049.000000	1772914704.735642
4526.955000	91063.665000	-10845.990000	-24963.480000	0.000000	0.000000	0.000000	0.000000	39.460688	14.582882	-53.176853	19.290958	-0.000000	0.000000	-0.000000	-0.000000	-5.310480	-1.190280	-6.867000	-0.096313	0.829344	0.616331	-1.000000	-1.000000	-1.000000	-1.000000	-1.000000	-1.000000	-1.000000	11.379310	0.000000	-1.000000	-1.000000	384050.000000	1772914704.740143
4570.785000	91057.905000	-10777.050000	-24974.730000	0.000000	0.000000	0.000000	0.000000	42.150596	23.655409	-40.709919	39.710860	-0.000000	0.000000	-0.000000	-0.000000	-5.310480	-1.190280	-6.867000	-0.096313	0.829344	0.616331	-1.000000	-1.000000	-1.000000	-1.000000	-1.000000	-1.000000	-1.000000	11.379310	0.000000	-1.000000	-1.000000	384051.000000	1772914704.740146
4575.060000	91037.880000	-10744.155000	-25038.855000	0.000000	0.000000	0.000000	0.000000	26.380844	19.816720	-13.393121	41.652708	-0.000000	0.000000	-0.000000	-0.000000	-5.310480	-1.190280	-6.867000	-0.096313	0.829344	0.616331	-1.000000	-1.000000	-1.000000	-1.000000	-1.000000	-1.000000	-1.000000	11.379310	0.000000	-1.000000	-1.000000	384052.000000	1772914704.743698
4465.755000	91011.285000	-10860.660000	-25105.725000	0.000000	0.000000	0.000000	0.000000	-2.731290	5.081132	15.657431	20.888850	-0.000000	0.000000	-0.000000	-0.000000	-5.310480	-1.190280	-6.867000	-0.096313	0.829344	0.616331	-1.000000	-1.000000	-1.000000	-1.000000	-1.000000	-1.000000	-1.000000	11.379310	0.000000	-1.000000	-1.000000	384053.000000	1772914704.743701
4423.410000	91000.620000	-10862.730000	-25055.820000	0.000000	0.000000	0.000000	0.000000	-34.592835	-12.693184	32.151736	-8.893544	-0.000000	0.000000	-0.000000	-0.000000	-5.310480	-1.190280	-6.867000	-0.096313	0.829344	0.616331	-1.000000	-1.000000	-1.000000	-1.000000	-1.000000	-1.000000	-1.000000	11.379310	0.000000	-1.000000	-1.000000	384054.000000	1772914704.747547
4479.120000	91010.340000	-10820.610000	-25071.570000	0.000000	0.000000	0.000000	0.000000	-56.340997	-23.827433	30.393111	-26.621748	-0.000000	0.000000	-0.000000	-0.000000	-5.310480	-1.190280	-6.867000	-0.096313	0.829344	0.616331	-1.000000	-1.000000	-1.000000	-1.000000	-1.000000	-1.000000	-1.000000	11.379310	0.000000	-1.000000	-1.000000	384055.000000	1772914704.747551
4648.770000	91042.830000	-10606.140000	-24819.390000	0.000000	0.000000	0.000000	0.000000	-49.908393	-21.534616	25.066745	-17.367030	-0.000000	0.000000	-0.000000	-0.000000	-6.424460	1.831200	-3.174080	-0.071289	0.822264	0.612913	-1.000000	-1.000000	-1.000000	-1.000000	-1.000000	-1.000000	-1.000000	11.379310	0.000000	-1.000000	-1.000000	384056.000000	1772914704.751661
4665.105000	91064.835000	-10588.455000	-24725.025000	0.000000	0.000000	0.000000	0.000000	-8.993372	-6.202006	32.941996	19.522772	-0.000000	0.000000	-0.000000	-0.000000	-6.424460	1.831200	-3.174080	-0.071289	0.822264	0.612913	-1.000000	-1.000000	-1.000000	-1.000000	-1.000000	-1.000000	-1.000000	11.379310	0.000000	-1.000000	-1.000000	384057.000000	1772914704.751664
4678.380000	91070.055000	-10592.865000	-24811.065000	0.000000	0.000000	0.000000	0.000000	43.155103	13.584315	46.216296	60.917032	-0.000000	0.000000	-0.000000	-0.000000	-6.424460	1.831200	-3.174080	-0.071289	0.822264	0.612913	-1.000000	-1.000000	-1.000000	-1.000000	-1.000000	-1.000000	-1.000000	11.379310	0.000000	-1.000000	-1.000000	384058.000000	1772914704.760338
4729.770000	91066.365000	-10555.155000	-24809.625000	0.000000	0.000000	0.000000	0.000000	70.687107	25.864084	40.667502	67.665855	-0.000000	0.000000	-0.000000	-0.000000	-6.424460	1.831200	-3.174080	-0.071289	0.822264	0.612913	-1.000000	-1.000000	-1.000000	-1.000000	-1.000000	-1.000000	-1.000000	11.379310	0.000000	-1.000000	-1.000000	384059.000000	1772914704.760341
4547.880000	91034.010000	-10808.190000	-25059.240000	0.000000	0.000000	0.000000	0.000000	55.180315	23.089980	3.823962	20.695287	-0.000000	0.000000	-0.000000	-0.000000	-6.424460	1.831200	-3.174080	-0.071289	0.822264	0.612913	-1.000000	-1.000000	-1.000000	-1.000000	-1.000000	-1.000000	-1.000000	11.379310	0.000000	-1.000000	-1.000000	384060.000000	1772914704.760345
